                                                                                                                        
                                                                                                                        
                  *** CONTINUA mt_ckd_3.2                                                                               
                                                                                 Most recent significant change         
                         H2O  SELF  (T)     0 - 20000 CM-1              mt_ckd_3.2 - Cs>2000,T 1800-3500 cm-1 (Aug 2017)
                              AIR           0 - 20000 CM-1              mt_ckd_3.0 - modify 0-700 cm-1        (Nov 2016)
                         CO2  AIR           0 - 10000 CM-1              mt_ckd_2.5 - modify 2000-3000 cm-1    (Jan 2010)
                              AIR   (T)  2386 -  2434 CM-1              mt_ckd_2.5 - temperature dep. added   (Jan 2010)
                         N2   SELF  (T)     0 -   350 CM-1              ckd_2.2    - Borysow Fromhold         (Feb 1996)
                              AIR   (T)     0 -   350 CM-1              mt_ckd_2.1 - incl. O2 rel. efficiency (Sep 2004)
                              AIR   (T)  1993 -  2905 CM-1              mt_ckd_2.8 - N2-H2O Mlawer/Alvarado   (Mar 2016)
                              AIR        4340 -  4910 CM-1              mt_ckd_2.7 - Mlawer and Gombos        (May 2015)
                         O2   AIR   (T)  1340 -  1850 CM-1              ckd_2.4.1  - Thibault et al.          (Mar 1998)
                              O2/N2      7550 -  8486 CM-1              ckd_2.4.1  - Mate et al.              (Feb 2000)
                              AIR        9100 - 11000 CM-1              ckd_2.4.1  - Mlawer et al.            (Aug 1999)
                         O2   AIR     12990 - 13223 CM-1                mt_ckd_3.1  - Mlawer and Gombos       (Jul 2017)
                              O2        15000 - 29870 CM-1              ckd_2.4.2  - Greenblatt et al.        (May 2000)
                              O2/N2     36000 -  >>>> CM-1 HERZBERG     ckd_0                                           
                         O3   AIR   (T)  9170 - 24565 CM-1 CHAPP/WULF   ckd_2.2                               (Feb 1996)
                                    (T) 27370 - 40800 CM-1 HARTL/HUGG   ckd_0                                           
                                        40800 - 54000 CM-1 HARTL/HUGG   ckd_0                                           
                                                                                                                        
                                                                                                                        
                                                                                                                        
                                                                                                                        
Continuum    LBL_n                      Description of Modification                                            Date     
---------    -----                    -------------------------------                                          ----     
                    H2O SELF HAS BEEN REDUCED IN THE 800-1200 CM-1 REGION                                  (01 SEP 1985)
                    03       TEMPERATURE DEPENDENCE HAS BEEN CORRECTED                                     (01 MAY 1987)
                    02       (1390-1760) HAS BEEN REDUCED (FACTOR = 0.78)                                  (07 MAR 1990)
 ckd_1.0      2.2   H2O SELF HAS BEEN REDUCED IN THE 1100-1500 CM-1 REGION                                 (01 APR 1993)
     "              H2O FOREIGN HAS BEEN REDUCED AT ~1300 CM-1 AND IN ALL THE WINDOW REGIONS               (01 APR 1993)
 ckd_2.1      3.3   H2O SELF HAS BEEN MODIFIED IN THE 700-1500 CM-1 REGION                                 (01 MAY 1994)
     "              H2O FOREIGN HAS BEEN MODIFIED IN THE ENTIRE 1200-2200 CM-1 SPECTRAL RANGE              (01 MAY 1994)
 ckd_2.2      3.7   H2O SELF HAS BEEN INCREASED 30% IN THE MICROWAVE REGION                                (09 FEB 1996)
     "              N2 COLLISION INDUCED PURE ROTATION BAND ADDED                                          (09 FEB 1996)
     "              O3 CHAPPUIS CHANGED TO VALUES FROM MODTRAN3                                            (09 FEB 1996)
 ckd_2.2.2    3.12  INTERPOLATION EFFECTS BETWEEN HARTLEY HUGGINS DATA AROUND 40800 CM-1                   (18 SEP 1996)
 ckd_2.4.1    5.12  O2 COLLISION INDUCED FUNDAMENTAL BAND (1340-1850 CM-1) CHANGED TO THIBAULT ET AL., 1996   (MAR 1998)
     "              N2 COLLISION INDUCED FUNDAMENTAL BAND (2085-2670 CM-1) CHANGED TO LAFFERTY ET AL., 1996   (MAR 1998)
     "              H2O FOREIGN HAS BEEN MODIFIED IN THE 0-800 CM-1 AND 1200-2200 CM-1 RANGE BASED ON      (04 JUN 1999)
     "                       AERI-ER FROM SHEBA, TOBIN ET AL., 1998                                                     
     "              H2O SELF HAS BEEN INCREASED IN THE 0-200 CM-1 REGION                                   (04 JUN 1999)
     "              O2 COLLISION INDUCED BAND HAS BEEN ADDED  (9100 - 11000 CM-1); MLAWER ET AL. 1998      (16 AUG 1999)
     "              O2 COLLISION INDUCED BAND HAS BEEN CHANGED (7555 - 8486 CM-1); MATE ET AL. 1999        (10 FEB 2000)
 ckd_2.4.2    5.17  O2 COLLISION INDUCED BANDS HAVE BEEN ADDED (15000 - 29870 CM-1); GREENBLATT ET AL. 1990 (8 MAY 2000)
     "              The nu2 CO2 increased by a factor of 7: based on U  Wisc. AFWEX and AERI_xr at ARM NSA    (Jul 2002)
 mt_ckd_1.00  7.01  *********   The entire water vapor continuum has been revised   *********                 (Dec 2002)
     "              *********   This continuum is based on a new line shape/collision induced formulation, mt_ckd ******
 mt_ckd_1.1   9.1   H2O foreign modified in the 250-550 cm-1 region; results now consistent with ckd_2.4.1    (Aug 2004)
 mt_ckd_1.2   9.2   Collision induced nitrogen 0-350 cm-1 increased (~1.35):  Boissoles at al., 2003          (Sep 2004)
 mt_ckd_1.3  10.0   Nu2 CO2: with P-R line mixing included; factor of 7 increase has been reduceed to 4.5     (May 2006)
 mt_ckd_2.0  11.1   CO2: Based on Hartmann P-Q-R line mixing.  Modification to v3 band based on AIRS data.    (Jul 2007)
 mt_ckd_2.01 11.2   H2O foreign modified in 250-550 cm-1 region based on analyses of nsa aeri_er data.        (Sep 2007)
 mt_ckd_2.1  11.3   CO2: Fundamental change in the lblrtm fourth function with consequent changes in continuum(Nov 2007)
     "              Bug fix impacting the nitrogen continuum in the 0-350 cm-1 region.                        (Nov 2007)
 mt_ckd_2.2  11.4   Analytic Derivative (species retrievals): n2 continuum removed from Jacobian calculation  (Mar 2008)
 mt_ckd_2.3  11.5   Bug fix: corrects error in which Analytic Derivative result depends on starting wavenumber(Aug 2008)
 mt_ckd_2.4  11.6   H2O: modification to self and foreign continuum (microwave and IR ARM data 0-600 cm-1)    (Nov 2008)
 mt_ckd_2.5  11.7   CO2: modification from 2000-3200 cm-1 (AERI(ARM),IASI AIRS measurements); Temp. dep. added(Jan 2010)
     "              H2O: modification to self cont. 2000-3000 cm-1   (IASI data, fit to near-IR results of              
     "              Bicknell et al., 2006 and Fulghum and Tilleman,  1991                                               
 mt_ckd_2.5.1 11.8  Updated common block for constants                                                        (May 2010)
 mt_ckd_2.5.2 12.0  Minor bug fixes, updated continuum summary info,  made consistent with monortm contnm.f   (Jan 2011)
 mt_ckd_2.5.3  -    Cosmetic changes                                                                          (Mar 2015)
 mt_ckd_2.7   12.4  N2 1st overtone - Shapiro & Gush (1966) modified by Mlawer and Gombos based on solar FTS  (Apr 2015)
                    Bug fix for analytic jacobians                                                            (Feb 2016)
 mt_ckd_2.8   12.5  N2-H2O from 2000-3000 cm-1,H2O self for 2000-3190 cm-1,H2O foreign in windows >1880 cm-1  (Jul 2016)
 mt_ckd_3.0   12.6  H2O: foreign/self 0-700/0-100 cm-1; RHUBC-II/-I; REFIR,AERI,SAO-FTS; Mlawer,Turner,Paine  (Nov 2016)
 mt_ckd_3.1   12.7  O2 A-band: Mlawer and Gombos based on analysis ofTCCON FTS measurements for OCO-2         (Jul 2017)
 mt_ckd_3.2   12.8  H2O self > 2000 cm-1 and tdep 1800-3500 cm-1: Campargue group and IASI obs; Mlawer et al. (Aug 2017)
                    ----------------------------------------------------------------------------------------------------
                    ----------------------------------------------------------------------------------------------------

                             P(MB)       T(K)

                              1.000   300.00

         MOLECULAR AMOUNTS (MOL/CM**2) BY LAYER 

   H2O       CO2        O3       N2O        CO       CH4        O2      OTHER

 2.172E+15 7.494E+12 0.000E+00 0.000E+00 0.000E+00 0.000E+00 4.562E+15 1.714E+16


     0.000   0.000E+00
     2.000   5.639E-12
     4.000   2.266E-11
     6.000   5.120E-11
     8.000   9.141E-11
    10.000   1.434E-10
    12.000   2.075E-10
    14.000   2.834E-10
    16.000   3.710E-10
    18.000   4.699E-10
    20.000   5.798E-10
    22.000   6.991E-10
    24.000   8.279E-10
    26.000   9.688E-10
    28.000   1.124E-09
    30.000   1.296E-09
    32.000   1.486E-09
    34.000   1.692E-09
    36.000   1.913E-09
    38.000   2.148E-09
    40.000   2.396E-09
    42.000   2.654E-09
    44.000   2.925E-09
    46.000   3.210E-09
    48.000   3.513E-09
    50.000   3.835E-09
    52.000   4.187E-09
    54.000   4.567E-09
    56.000   4.961E-09
    58.000   5.351E-09
    60.000   5.723E-09
    62.000   6.074E-09
    64.000   6.414E-09
    66.000   6.748E-09
    68.000   7.079E-09
    70.000   7.413E-09
    72.000   7.754E-09
    74.000   8.101E-09
    76.000   8.444E-09
    78.000   8.774E-09
    80.000   9.084E-09
    82.000   9.372E-09
    84.000   9.644E-09
    86.000   9.902E-09
    88.000   1.015E-08
    90.000   1.038E-08
    92.000   1.060E-08
    94.000   1.080E-08
    96.000   1.099E-08
    98.000   1.119E-08
   100.000   1.138E-08
   102.000   1.159E-08
   104.000   1.180E-08
   106.000   1.201E-08
   108.000   1.221E-08
   110.000   1.239E-08
   112.000   1.253E-08
   114.000   1.265E-08
   116.000   1.276E-08
   118.000   1.287E-08
   120.000   1.299E-08
   122.000   1.311E-08
   124.000   1.324E-08
   126.000   1.338E-08
   128.000   1.350E-08
   130.000   1.360E-08
   132.000   1.370E-08
   134.000   1.380E-08
   136.000   1.387E-08
   138.000   1.393E-08
   140.000   1.394E-08
   142.000   1.390E-08
   144.000   1.381E-08
   146.000   1.369E-08
   148.000   1.360E-08
   150.000   1.356E-08
   152.000   1.360E-08
   154.000   1.371E-08
   156.000   1.383E-08
   158.000   1.392E-08
   160.000   1.393E-08
   162.000   1.382E-08
   164.000   1.363E-08
   166.000   1.340E-08
   168.000   1.319E-08
   170.000   1.304E-08
   172.000   1.296E-08
   174.000   1.293E-08
   176.000   1.291E-08
   178.000   1.289E-08
   180.000   1.283E-08
   182.000   1.274E-08
   184.000   1.263E-08
   186.000   1.250E-08
   188.000   1.237E-08
   190.000   1.224E-08
   192.000   1.210E-08
   194.000   1.194E-08
   196.000   1.179E-08
   198.000   1.164E-08
   200.000   1.152E-08
   202.000   1.145E-08
   204.000   1.140E-08
   206.000   1.136E-08
   208.000   1.131E-08
   210.000   1.121E-08
   212.000   1.107E-08
   214.000   1.089E-08
   216.000   1.070E-08
   218.000   1.051E-08
   220.000   1.034E-08
   222.000   1.021E-08
   224.000   1.011E-08
   226.000   1.001E-08
   228.000   9.904E-09
   230.000   9.763E-09
   232.000   9.576E-09
   234.000   9.354E-09
   236.000   9.121E-09
   238.000   8.899E-09
   240.000   8.711E-09
   242.000   8.563E-09
   244.000   8.441E-09
   246.000   8.333E-09
   248.000   8.230E-09
   250.000   8.121E-09
   252.000   8.005E-09
   254.000   7.889E-09
   256.000   7.774E-09
   258.000   7.661E-09
   260.000   7.552E-09
   262.000   7.447E-09
   264.000   7.346E-09
   266.000   7.247E-09
   268.000   7.147E-09
   270.000   7.042E-09
   272.000   6.932E-09
   274.000   6.817E-09
   276.000   6.702E-09
   278.000   6.588E-09
   280.000   6.479E-09
   282.000   6.378E-09
   284.000   6.284E-09
   286.000   6.190E-09
   288.000   6.093E-09
   290.000   5.986E-09
   292.000   5.866E-09
   294.000   5.735E-09
   296.000   5.601E-09
   298.000   5.471E-09
   300.000   5.354E-09
   302.000   5.251E-09
   304.000   5.157E-09
   306.000   5.069E-09
   308.000   4.985E-09
   310.000   4.900E-09
   312.000   4.816E-09
   314.000   4.734E-09
   316.000   4.654E-09
   318.000   4.575E-09
   320.000   4.496E-09
   322.000   4.420E-09
   324.000   4.347E-09
   326.000   4.274E-09
   328.000   4.198E-09
   330.000   4.117E-09
   332.000   4.028E-09
   334.000   3.931E-09
   336.000   3.833E-09
   338.000   3.740E-09
   340.000   3.656E-09
   342.000   3.587E-09
   344.000   3.526E-09
   346.000   3.471E-09
   348.000   3.415E-09
   350.000   3.353E-09
   352.000   3.283E-09
   354.000   3.209E-09
   356.000   3.133E-09
   358.000   3.059E-09
   360.000   2.989E-09
   362.000   2.922E-09
   364.000   2.858E-09
   366.000   2.796E-09
   368.000   2.736E-09
   370.000   2.678E-09
   372.000   2.624E-09
   374.000   2.573E-09
   376.000   2.524E-09
   378.000   2.476E-09
   380.000   2.427E-09
   382.000   2.376E-09
   384.000   2.326E-09
   386.000   2.276E-09
   388.000   2.228E-09
   390.000   2.181E-09
   392.000   2.137E-09
   394.000   2.095E-09
   396.000   2.054E-09
   398.000   2.014E-09
   400.000   1.975E-09
   402.000   1.937E-09
   404.000   1.899E-09
   406.000   1.862E-09
   408.000   1.826E-09
   410.000   1.792E-09
   412.000   1.761E-09
   414.000   1.731E-09
   416.000   1.702E-09
   418.000   1.673E-09
   420.000   1.643E-09
   422.000   1.612E-09
   424.000   1.579E-09
   426.000   1.547E-09
   428.000   1.515E-09
   430.000   1.484E-09
   432.000   1.456E-09
   434.000   1.429E-09
   436.000   1.403E-09
   438.000   1.377E-09
   440.000   1.351E-09
   442.000   1.324E-09
   444.000   1.298E-09
   446.000   1.273E-09
   448.000   1.247E-09
   450.000   1.223E-09
   452.000   1.200E-09
   454.000   1.177E-09
   456.000   1.155E-09
   458.000   1.134E-09
   460.000   1.112E-09
   462.000   1.091E-09
   464.000   1.070E-09
   466.000   1.050E-09
   468.000   1.030E-09
   470.000   1.010E-09
   472.000   9.910E-10
   474.000   9.723E-10
   476.000   9.540E-10
   478.000   9.359E-10
   480.000   9.181E-10
   482.000   9.003E-10
   484.000   8.827E-10
   486.000   8.654E-10
   488.000   8.484E-10
   490.000   8.317E-10
   492.000   8.153E-10
   494.000   7.991E-10
   496.000   7.832E-10
   498.000   7.678E-10
   500.000   7.529E-10
   502.000   7.387E-10
   504.000   7.251E-10
   506.000   7.118E-10
   508.000   6.989E-10
   510.000   6.860E-10
   512.000   6.734E-10
   514.000   6.610E-10
   516.000   6.487E-10
   518.000   6.367E-10
   520.000   6.247E-10
   522.000   6.128E-10
   524.000   6.009E-10
   526.000   5.892E-10
   528.000   5.777E-10
   530.000   5.664E-10
   532.000   5.554E-10
   534.000   5.447E-10
   536.000   5.341E-10
   538.000   5.238E-10
   540.000   5.138E-10
   542.000   5.040E-10
   544.000   4.946E-10
   546.000   4.853E-10
   548.000   4.763E-10
   550.000   4.673E-10
   552.000   4.585E-10
   554.000   4.499E-10
   556.000   4.414E-10
   558.000   4.331E-10
   560.000   4.250E-10
   562.000   4.171E-10
   564.000   4.094E-10
   566.000   4.019E-10
   568.000   3.944E-10
   570.000   3.871E-10
   572.000   3.798E-10
   574.000   3.725E-10
   576.000   3.654E-10
   578.000   3.584E-10
   580.000   3.517E-10
   582.000   3.451E-10
   584.000   3.388E-10
   586.000   3.326E-10
   588.000   3.265E-10
   590.000   3.206E-10
   592.000   3.148E-10
   594.000   3.092E-10
   596.000   3.037E-10
   598.000   2.984E-10
   600.000   2.931E-10
   602.000   2.879E-10
   604.000   2.829E-10
   606.000   2.779E-10
   608.000   2.731E-10
   610.000   2.683E-10
   612.000   2.636E-10
   614.000   2.590E-10
   616.000   2.545E-10
   618.000   2.501E-10
   620.000   2.458E-10
   622.000   2.416E-10
   624.000   2.375E-10
   626.000   2.335E-10
   628.000   2.296E-10
   630.000   2.258E-10
   632.000   2.222E-10
   634.000   2.187E-10
   636.000   2.152E-10
   638.000   2.119E-10
   640.000   2.086E-10
   642.000   2.055E-10
   644.000   2.026E-10
   646.000   2.000E-10
   648.000   1.975E-10
   650.000   1.950E-10
   652.000   1.926E-10
   654.000   1.902E-10
   656.000   1.878E-10
   658.000   1.855E-10
   660.000   1.831E-10
   662.000   1.807E-10
   664.000   1.783E-10
   666.000   1.758E-10
   668.000   1.734E-10
   670.000   1.709E-10
   672.000   1.683E-10
   674.000   1.657E-10
   676.000   1.631E-10
   678.000   1.604E-10
   680.000   1.577E-10
   682.000   1.550E-10
   684.000   1.523E-10
   686.000   1.496E-10
   688.000   1.469E-10
   690.000   1.441E-10
   692.000   1.413E-10
   694.000   1.389E-10
   696.000   1.367E-10
   698.000   1.345E-10
   700.000   1.325E-10
   702.000   1.305E-10
   704.000   1.285E-10
   706.000   1.267E-10
   708.000   1.248E-10
   710.000   1.231E-10
   712.000   1.214E-10
   714.000   1.197E-10
   716.000   1.181E-10
   718.000   1.166E-10
   720.000   1.150E-10
   722.000   1.135E-10
   724.000   1.120E-10
   726.000   1.106E-10
   728.000   1.092E-10
   730.000   1.078E-10
   732.000   1.064E-10
   734.000   1.051E-10
   736.000   1.038E-10
   738.000   1.025E-10
   740.000   1.012E-10
   742.000   9.997E-11
   744.000   9.877E-11
   746.000   9.759E-11
   748.000   9.645E-11
   750.000   9.532E-11
   752.000   9.421E-11
   754.000   9.312E-11
   756.000   9.206E-11
   758.000   9.101E-11
   760.000   8.998E-11
   762.000   8.897E-11
   764.000   8.798E-11
   766.000   8.700E-11
   768.000   8.604E-11
   770.000   8.510E-11
   772.000   8.418E-11
   774.000   8.327E-11
   776.000   8.238E-11
   778.000   8.150E-11
   780.000   8.063E-11
   782.000   7.978E-11
   784.000   7.895E-11
   786.000   7.813E-11
   788.000   7.732E-11
   790.000   7.653E-11
   792.000   7.575E-11
   794.000   7.499E-11
   796.000   7.424E-11
   798.000   7.350E-11
   800.000   7.277E-11
   802.000   7.204E-11
   804.000   7.133E-11
   806.000   7.062E-11
   808.000   6.994E-11
   810.000   6.927E-11
   812.000   6.862E-11
   814.000   6.800E-11
   816.000   6.739E-11
   818.000   6.680E-11
   820.000   6.622E-11
   822.000   6.566E-11
   824.000   6.511E-11
   826.000   6.459E-11
   828.000   6.407E-11
   830.000   6.355E-11
   832.000   6.304E-11
   834.000   6.253E-11
   836.000   6.203E-11
   838.000   6.154E-11
   840.000   6.106E-11
   842.000   6.060E-11
   844.000   6.015E-11
   846.000   5.972E-11
   848.000   5.929E-11
   850.000   5.885E-11
   852.000   5.841E-11
   854.000   5.797E-11
   856.000   5.753E-11
   858.000   5.709E-11
   860.000   5.665E-11
   862.000   5.621E-11
   864.000   5.577E-11
   866.000   5.533E-11
   868.000   5.490E-11
   870.000   5.447E-11
   872.000   5.405E-11
   874.000   5.364E-11
   876.000   5.324E-11
   878.000   5.283E-11
   880.000   5.242E-11
   882.000   5.201E-11
   884.000   5.160E-11
   886.000   5.120E-11
   888.000   5.079E-11
   890.000   5.038E-11
   892.000   4.997E-11
   894.000   4.956E-11
   896.000   4.915E-11
   898.000   4.876E-11
   900.000   4.838E-11
   902.000   4.803E-11
   904.000   4.772E-11
   906.000   4.741E-11
   908.000   4.708E-11
   910.000   4.672E-11
   912.000   4.630E-11
   914.000   4.584E-11
   916.000   4.537E-11
   918.000   4.489E-11
   920.000   4.444E-11
   922.000   4.401E-11
   924.000   4.359E-11
   926.000   4.318E-11
   928.000   4.276E-11
   930.000   4.233E-11
   932.000   4.188E-11
   934.000   4.140E-11
   936.000   4.092E-11
   938.000   4.046E-11
   940.000   4.002E-11
   942.000   3.962E-11
   944.000   3.924E-11
   946.000   3.887E-11
   948.000   3.852E-11
   950.000   3.818E-11
   952.000   3.785E-11
   954.000   3.753E-11
   956.000   3.723E-11
   958.000   3.694E-11
   960.000   3.664E-11
   962.000   3.636E-11
   964.000   3.607E-11
   966.000   3.579E-11
   968.000   3.552E-11
   970.000   3.525E-11
   972.000   3.498E-11
   974.000   3.471E-11
   976.000   3.445E-11
   978.000   3.419E-11
   980.000   3.393E-11
   982.000   3.367E-11
   984.000   3.342E-11
   986.000   3.316E-11
   988.000   3.291E-11
   990.000   3.266E-11
   992.000   3.242E-11
   994.000   3.218E-11
   996.000   3.194E-11
   998.000   3.170E-11
  1000.000   3.146E-11
  1002.000   3.123E-11
  1004.000   3.100E-11
  1006.000   3.077E-11
  1008.000   3.054E-11
  1010.000   3.032E-11
  1012.000   3.010E-11
  1014.000   2.989E-11
  1016.000   2.967E-11
  1018.000   2.946E-11
  1020.000   2.925E-11
  1022.000   2.904E-11
  1024.000   2.884E-11
  1026.000   2.863E-11
  1028.000   2.843E-11
  1030.000   2.823E-11
  1032.000   2.803E-11
  1034.000   2.784E-11
  1036.000   2.764E-11
  1038.000   2.745E-11
  1040.000   2.727E-11
  1042.000   2.708E-11
  1044.000   2.690E-11
  1046.000   2.672E-11
  1048.000   2.655E-11
  1050.000   2.637E-11
  1052.000   2.620E-11
  1054.000   2.603E-11
  1056.000   2.587E-11
  1058.000   2.571E-11
  1060.000   2.555E-11
  1062.000   2.539E-11
  1064.000   2.523E-11
  1066.000   2.507E-11
  1068.000   2.492E-11
  1070.000   2.477E-11
  1072.000   2.463E-11
  1074.000   2.449E-11
  1076.000   2.436E-11
  1078.000   2.423E-11
  1080.000   2.410E-11
  1082.000   2.397E-11
  1084.000   2.384E-11
  1086.000   2.372E-11
  1088.000   2.360E-11
  1090.000   2.348E-11
  1092.000   2.337E-11
  1094.000   2.326E-11
  1096.000   2.315E-11
  1098.000   2.305E-11
  1100.000   2.295E-11
  1102.000   2.285E-11
  1104.000   2.276E-11
  1106.000   2.267E-11
  1108.000   2.258E-11
  1110.000   2.250E-11
  1112.000   2.242E-11
  1114.000   2.234E-11
  1116.000   2.226E-11
  1118.000   2.218E-11
  1120.000   2.212E-11
  1122.000   2.206E-11
  1124.000   2.200E-11
  1126.000   2.195E-11
  1128.000   2.191E-11
  1130.000   2.187E-11
  1132.000   2.183E-11
  1134.000   2.180E-11
  1136.000   2.177E-11
  1138.000   2.175E-11
  1140.000   2.173E-11
  1142.000   2.172E-11
  1144.000   2.171E-11
  1146.000   2.170E-11
  1148.000   2.170E-11
  1150.000   2.171E-11
  1152.000   2.172E-11
  1154.000   2.173E-11
  1156.000   2.175E-11
  1158.000   2.177E-11
  1160.000   2.180E-11
  1162.000   2.184E-11
  1164.000   2.189E-11
  1166.000   2.194E-11
  1168.000   2.199E-11
  1170.000   2.206E-11
  1172.000   2.213E-11
  1174.000   2.220E-11
  1176.000   2.229E-11
  1178.000   2.238E-11
  1180.000   2.248E-11
  1182.000   2.259E-11
  1184.000   2.271E-11
  1186.000   2.284E-11
  1188.000   2.298E-11
  1190.000   2.312E-11
  1192.000   2.327E-11
  1194.000   2.342E-11
  1196.000   2.358E-11
  1198.000   2.375E-11
  1200.000   2.393E-11
  1202.000   2.411E-11
  1204.000   2.430E-11
  1206.000   2.450E-11
  1208.000   2.471E-11
  1210.000   2.494E-11
  1212.000   2.519E-11
  1214.000   2.546E-11
  1216.000   2.574E-11
  1218.000   2.603E-11
  1220.000   2.633E-11
  1222.000   2.664E-11
  1224.000   2.696E-11
  1226.000   2.730E-11
  1228.000   2.765E-11
  1230.000   2.802E-11
  1232.000   2.841E-11
  1234.000   2.882E-11
  1236.000   2.925E-11
  1238.000   2.970E-11
  1240.000   3.015E-11
  1242.000   3.063E-11
  1244.000   3.112E-11
  1246.000   3.163E-11
  1248.000   3.214E-11
  1250.000   3.266E-11
  1252.000   3.317E-11
  1254.000   3.367E-11
  1256.000   3.418E-11
  1258.000   3.473E-11
  1260.000   3.534E-11
  1262.000   3.602E-11
  1264.000   3.675E-11
  1266.000   3.753E-11
  1268.000   3.833E-11
  1270.000   3.914E-11
  1272.000   3.997E-11
  1274.000   4.080E-11
  1276.000   4.166E-11
  1278.000   4.257E-11
  1280.000   4.353E-11
  1282.000   4.456E-11
  1284.000   4.564E-11
  1286.000   4.677E-11
  1288.000   4.793E-11
  1290.000   4.910E-11
  1292.000   5.029E-11
  1294.000   5.149E-11
  1296.000   5.272E-11
  1298.000   5.400E-11
  1300.000   5.536E-11
  1302.000   5.678E-11
  1304.000   5.823E-11
  1306.000   5.975E-11
  1308.000   6.138E-11
  1310.000   6.313E-11
  1312.000   6.505E-11
  1314.000   6.711E-11
  1316.000   6.927E-11
  1318.000   7.147E-11
  1320.000   7.366E-11
  1322.000   7.580E-11
  1324.000   7.791E-11
  1326.000   8.008E-11
  1328.000   8.238E-11
  1330.000   8.489E-11
  1332.000   8.759E-11
  1334.000   9.044E-11
  1336.000   9.345E-11
  1338.000   9.664E-11
  1340.000   1.000E-10
  1342.000   1.037E-10
  1344.000   1.076E-10
  1346.000   1.116E-10
  1348.000   1.158E-10
  1350.000   1.199E-10
  1352.000   1.239E-10
  1354.000   1.278E-10
  1356.000   1.318E-10
  1358.000   1.362E-10
  1360.000   1.412E-10
  1362.000   1.469E-10
  1364.000   1.532E-10
  1366.000   1.599E-10
  1368.000   1.667E-10
  1370.000   1.736E-10
  1372.000   1.804E-10
  1374.000   1.873E-10
  1376.000   1.944E-10
  1378.000   2.017E-10
  1380.000   2.094E-10
  1382.000   2.173E-10
  1384.000   2.254E-10
  1386.000   2.338E-10
  1388.000   2.428E-10
  1390.000   2.527E-10
  1392.000   2.638E-10
  1394.000   2.760E-10
  1396.000   2.887E-10
  1398.000   3.015E-10
  1400.000   3.138E-10
  1402.000   3.250E-10
  1404.000   3.354E-10
  1406.000   3.460E-10
  1408.000   3.578E-10
  1410.000   3.717E-10
  1412.000   3.886E-10
  1414.000   4.079E-10
  1416.000   4.283E-10
  1418.000   4.483E-10
  1420.000   4.665E-10
  1422.000   4.821E-10
  1424.000   4.961E-10
  1426.000   5.096E-10
  1428.000   5.241E-10
  1430.000   5.408E-10
  1432.000   5.604E-10
  1434.000   5.820E-10
  1436.000   6.047E-10
  1438.000   6.276E-10
  1440.000   6.498E-10
  1442.000   6.708E-10
  1444.000   6.912E-10
  1446.000   7.117E-10
  1448.000   7.333E-10
  1450.000   7.567E-10
  1452.000   7.827E-10
  1454.000   8.107E-10
  1456.000   8.397E-10
  1458.000   8.684E-10
  1460.000   8.957E-10
  1462.000   9.206E-10
  1464.000   9.436E-10
  1466.000   9.666E-10
  1468.000   9.913E-10
  1470.000   1.020E-09
  1472.000   1.053E-09
  1474.000   1.089E-09
  1476.000   1.127E-09
  1478.000   1.165E-09
  1480.000   1.201E-09
  1482.000   1.234E-09
  1484.000   1.266E-09
  1486.000   1.297E-09
  1488.000   1.329E-09
  1490.000   1.362E-09
  1492.000   1.396E-09
  1494.000   1.432E-09
  1496.000   1.469E-09
  1498.000   1.506E-09
  1500.000   1.543E-09
  1502.000   1.582E-09
  1504.000   1.623E-09
  1506.000   1.663E-09
  1508.000   1.702E-09
  1510.000   1.739E-09
  1512.000   1.771E-09
  1514.000   1.800E-09
  1516.000   1.828E-09
  1518.000   1.856E-09
  1520.000   1.887E-09
  1522.000   1.922E-09
  1524.000   1.960E-09
  1526.000   1.998E-09
  1528.000   2.034E-09
  1530.000   2.064E-09
  1532.000   2.089E-09
  1534.000   2.109E-09
  1536.000   2.126E-09
  1538.000   2.141E-09
  1540.000   2.156E-09
  1542.000   2.169E-09
  1544.000   2.181E-09
  1546.000   2.191E-09
  1548.000   2.199E-09
  1550.000   2.206E-09
  1552.000   2.210E-09
  1554.000   2.212E-09
  1556.000   2.213E-09
  1558.000   2.211E-09
  1560.000   2.208E-09
  1562.000   2.201E-09
  1564.000   2.192E-09
  1566.000   2.182E-09
  1568.000   2.170E-09
  1570.000   2.157E-09
  1572.000   2.143E-09
  1574.000   2.128E-09
  1576.000   2.112E-09
  1578.000   2.096E-09
  1580.000   2.079E-09
  1582.000   2.062E-09
  1584.000   2.043E-09
  1586.000   2.024E-09
  1588.000   2.007E-09
  1590.000   1.992E-09
  1592.000   1.980E-09
  1594.000   1.970E-09
  1596.000   1.961E-09
  1598.000   1.954E-09
  1600.000   1.949E-09
  1602.000   1.946E-09
  1604.000   1.944E-09
  1606.000   1.943E-09
  1608.000   1.946E-09
  1610.000   1.951E-09
  1612.000   1.959E-09
  1614.000   1.970E-09
  1616.000   1.984E-09
  1618.000   1.998E-09
  1620.000   2.013E-09
  1622.000   2.028E-09
  1624.000   2.045E-09
  1626.000   2.063E-09
  1628.000   2.080E-09
  1630.000   2.096E-09
  1632.000   2.111E-09
  1634.000   2.126E-09
  1636.000   2.140E-09
  1638.000   2.153E-09
  1640.000   2.163E-09
  1642.000   2.170E-09
  1644.000   2.175E-09
  1646.000   2.178E-09
  1648.000   2.182E-09
  1650.000   2.186E-09
  1652.000   2.194E-09
  1654.000   2.204E-09
  1656.000   2.213E-09
  1658.000   2.220E-09
  1660.000   2.224E-09
  1662.000   2.224E-09
  1664.000   2.221E-09
  1666.000   2.216E-09
  1668.000   2.207E-09
  1670.000   2.196E-09
  1672.000   2.180E-09
  1674.000   2.161E-09
  1676.000   2.139E-09
  1678.000   2.116E-09
  1680.000   2.093E-09
  1682.000   2.070E-09
  1684.000   2.046E-09
  1686.000   2.021E-09
  1688.000   1.996E-09
  1690.000   1.969E-09
  1692.000   1.941E-09
  1694.000   1.911E-09
  1696.000   1.881E-09
  1698.000   1.851E-09
  1700.000   1.821E-09
  1702.000   1.792E-09
  1704.000   1.764E-09
  1706.000   1.737E-09
  1708.000   1.708E-09
  1710.000   1.678E-09
  1712.000   1.648E-09
  1714.000   1.617E-09
  1716.000   1.585E-09
  1718.000   1.551E-09
  1720.000   1.515E-09
  1722.000   1.475E-09
  1724.000   1.431E-09
  1726.000   1.386E-09
  1728.000   1.343E-09
  1730.000   1.305E-09
  1732.000   1.272E-09
  1734.000   1.244E-09
  1736.000   1.218E-09
  1738.000   1.191E-09
  1740.000   1.163E-09
  1742.000   1.132E-09
  1744.000   1.100E-09
  1746.000   1.067E-09
  1748.000   1.036E-09
  1750.000   1.006E-09
  1752.000   9.798E-10
  1754.000   9.553E-10
  1756.000   9.319E-10
  1758.000   9.090E-10
  1760.000   8.857E-10
  1762.000   8.618E-10
  1764.000   8.376E-10
  1766.000   8.139E-10
  1768.000   7.909E-10
  1770.000   7.692E-10
  1772.000   7.492E-10
  1774.000   7.306E-10
  1776.000   7.127E-10
  1778.000   6.950E-10
  1780.000   6.769E-10
  1782.000   6.578E-10
  1784.000   6.382E-10
  1786.000   6.189E-10
  1788.000   6.004E-10
  1790.000   5.835E-10
  1792.000   5.688E-10
  1794.000   5.559E-10
  1796.000   5.438E-10
  1798.000   5.314E-10
  1800.000   5.180E-10
  1802.000   5.027E-10
  1804.000   4.864E-10
  1806.000   4.699E-10
  1808.000   4.539E-10
  1810.000   4.395E-10
  1812.000   4.268E-10
  1814.000   4.154E-10
  1816.000   4.046E-10
  1818.000   3.941E-10
  1820.000   3.833E-10
  1822.000   3.720E-10
  1824.000   3.605E-10
  1826.000   3.492E-10
  1828.000   3.382E-10
  1830.000   3.281E-10
  1832.000   3.186E-10
  1834.000   3.098E-10
  1836.000   3.014E-10
  1838.000   2.936E-10
  1840.000   2.862E-10
  1842.000   2.795E-10
  1844.000   2.737E-10
  1846.000   2.682E-10
  1848.000   2.625E-10
  1850.000   2.563E-10
  1852.000   2.491E-10
  1854.000   2.414E-10
  1856.000   2.335E-10
  1858.000   2.260E-10
  1860.000   2.194E-10
  1862.000   2.142E-10
  1864.000   2.100E-10
  1866.000   2.062E-10
  1868.000   2.021E-10
  1870.000   1.970E-10
  1872.000   1.905E-10
  1874.000   1.829E-10
  1876.000   1.751E-10
  1878.000   1.677E-10
  1880.000   1.616E-10
  1882.000   1.571E-10
  1884.000   1.537E-10
  1886.000   1.508E-10
  1888.000   1.479E-10
  1890.000   1.444E-10
  1892.000   1.401E-10
  1894.000   1.354E-10
  1896.000   1.305E-10
  1898.000   1.258E-10
  1900.000   1.216E-10
  1902.000   1.179E-10
  1904.000   1.145E-10
  1906.000   1.113E-10
  1908.000   1.084E-10
  1910.000   1.055E-10
  1912.000   1.029E-10
  1914.000   1.005E-10
  1916.000   9.825E-11
  1918.000   9.602E-11
  1920.000   9.371E-11
  1922.000   9.128E-11
  1924.000   8.881E-11
  1926.000   8.635E-11
  1928.000   8.395E-11
  1930.000   8.166E-11
  1932.000   7.948E-11
  1934.000   7.738E-11
  1936.000   7.536E-11
  1938.000   7.341E-11
  1940.000   7.154E-11
  1942.000   6.977E-11
  1944.000   6.811E-11
  1946.000   6.651E-11
  1948.000   6.492E-11
  1950.000   6.328E-11
  1952.000   6.157E-11
  1954.000   5.981E-11
  1956.000   5.806E-11
  1958.000   5.640E-11
  1960.000   5.488E-11
  1962.000   5.355E-11
  1964.000   5.238E-11
  1966.000   5.128E-11
  1968.000   5.018E-11
  1970.000   4.901E-11
  1972.000   4.772E-11
  1974.000   4.638E-11
  1976.000   4.503E-11
  1978.000   4.371E-11
  1980.000   4.249E-11
  1982.000   4.136E-11
  1984.000   4.028E-11
  1986.000   3.926E-11
  1988.000   3.829E-11
  1990.000   3.736E-11
  1992.000   3.647E-11
  1994.000   3.564E-11
  1996.000   3.485E-11
  1998.000   3.410E-11
  2000.000   3.340E-11
  2002.000   3.276E-11
  2004.000   3.218E-11
  2006.000   3.164E-11
  2008.000   3.111E-11
  2010.000   3.057E-11
  2012.000   3.002E-11
  2014.000   2.949E-11
  2016.000   2.896E-11
  2018.000   2.842E-11
  2020.000   2.785E-11
  2022.000   2.724E-11
  2024.000   2.660E-11
  2026.000   2.594E-11
  2028.000   2.530E-11
  2030.000   2.469E-11
  2032.000   2.411E-11
  2034.000   2.357E-11
  2036.000   2.303E-11
  2038.000   2.250E-11
  2040.000   2.195E-11
  2042.000   2.138E-11
  2044.000   2.079E-11
  2046.000   2.020E-11
  2048.000   1.964E-11
  2050.000   1.911E-11
  2052.000   1.864E-11
  2054.000   1.820E-11
  2056.000   1.778E-11
  2058.000   1.737E-11
  2060.000   1.696E-11
  2062.000   1.654E-11
  2064.000   1.612E-11
  2066.000   1.570E-11
  2068.000   1.529E-11
  2070.000   1.490E-11
  2072.000   1.453E-11
  2074.000   1.417E-11
  2076.000   1.383E-11
  2078.000   1.349E-11
  2080.000   1.315E-11
  2082.000   1.282E-11
  2084.000   1.250E-11
  2086.000   1.218E-11
  2088.000   1.187E-11
  2090.000   1.157E-11
  2092.000   1.128E-11
  2094.000   1.101E-11
  2096.000   1.074E-11
  2098.000   1.048E-11
  2100.000   1.023E-11
  2102.000   9.968E-12
  2104.000   9.712E-12
  2106.000   9.461E-12
  2108.000   9.220E-12
  2110.000   8.991E-12
  2112.000   8.777E-12
  2114.000   8.575E-12
  2116.000   8.383E-12
  2118.000   8.197E-12
  2120.000   8.014E-12
  2122.000   7.829E-12
  2124.000   7.645E-12
  2126.000   7.468E-12
  2128.000   7.304E-12
  2130.000   7.160E-12
  2132.000   7.041E-12
  2134.000   6.943E-12
  2136.000   6.857E-12
  2138.000   6.775E-12
  2140.000   6.688E-12
  2142.000   6.595E-12
  2144.000   6.502E-12
  2146.000   6.410E-12
  2148.000   6.320E-12
  2150.000   6.234E-12
  2152.000   6.151E-12
  2154.000   6.071E-12
  2156.000   5.994E-12
  2158.000   5.919E-12
  2160.000   5.845E-12
  2162.000   5.774E-12
  2164.000   5.704E-12
  2166.000   5.637E-12
  2168.000   5.572E-12
  2170.000   5.508E-12
  2172.000   5.444E-12
  2174.000   5.382E-12
  2176.000   5.322E-12
  2178.000   5.263E-12
  2180.000   5.207E-12
  2182.000   5.153E-12
  2184.000   5.103E-12
  2186.000   5.054E-12
  2188.000   5.006E-12
  2190.000   4.960E-12
  2192.000   4.915E-12
  2194.000   4.872E-12
  2196.000   4.832E-12
  2198.000   4.792E-12
  2200.000   4.753E-12
  2202.000   4.716E-12
  2204.000   4.680E-12
  2206.000   4.646E-12
  2208.000   4.614E-12
  2210.000   4.581E-12
  2212.000   4.549E-12
  2214.000   4.520E-12
  2216.000   4.495E-12
  2218.000   4.468E-12
  2220.000   4.440E-12
  2222.000   4.417E-12
  2224.000   4.396E-12
  2226.000   4.374E-12
  2228.000   4.352E-12
  2230.000   4.335E-12
  2232.000   4.322E-12
  2234.000   4.308E-12
  2236.000   4.296E-12
  2238.000   4.289E-12
  2240.000   4.285E-12
  2242.000   4.282E-12
  2244.000   4.280E-12
  2246.000   4.285E-12
  2248.000   4.295E-12
  2250.000   4.305E-12
  2252.000   4.316E-12
  2254.000   4.333E-12
  2256.000   4.354E-12
  2258.000   4.370E-12
  2260.000   4.384E-12
  2262.000   4.401E-12
  2264.000   4.421E-12
  2266.000   4.442E-12
  2268.000   4.465E-12
  2270.000   4.495E-12
  2272.000   4.532E-12
  2274.000   4.573E-12
  2276.000   4.620E-12
  2278.000   4.678E-12
  2280.000   4.749E-12
  2282.000   4.832E-12
  2284.000   4.935E-12
  2286.000   5.068E-12
  2288.000   5.237E-12
  2290.000   5.453E-12
  2292.000   5.731E-12
  2294.000   6.084E-12
  2296.000   6.533E-12
  2298.000   7.101E-12
  2300.000   7.811E-12
  2302.000   8.687E-12
  2304.000   9.753E-12
  2306.000   1.102E-11
  2308.000   1.252E-11
  2310.000   1.426E-11
  2312.000   1.623E-11
  2314.000   1.843E-11
  2316.000   2.082E-11
  2318.000   2.335E-11
  2320.000   2.595E-11
  2322.000   2.857E-11
  2324.000   3.110E-11
  2326.000   3.346E-11
  2328.000   3.568E-11
  2330.000   3.781E-11
  2332.000   3.990E-11
  2334.000   4.199E-11
  2336.000   4.407E-11
  2338.000   4.613E-11
  2340.000   4.805E-11
  2342.000   4.974E-11
  2344.000   5.111E-11
  2346.000   5.207E-11
  2348.000   5.258E-11
  2350.000   5.258E-11
  2352.000   5.210E-11
  2354.000   5.110E-11
  2356.000   4.969E-11
  2358.000   4.789E-11
  2360.000   4.578E-11
  2362.000   4.345E-11
  2364.000   4.096E-11
  2366.000   3.835E-11
  2368.000   3.569E-11
  2370.000   3.297E-11
  2372.000   3.020E-11
  2374.000   2.733E-11
  2376.000   2.435E-11
  2378.000   2.128E-11
  2380.000   1.824E-11
  2382.000   1.538E-11
  2384.000   1.276E-11
  2386.000   1.069E-11
  2388.000   8.984E-12
  2390.000   7.554E-12
  2392.000   6.435E-12
  2394.000   5.538E-12
  2396.000   4.859E-12
  2398.000   4.411E-12
  2400.000   4.116E-12
  2402.000   3.885E-12
  2404.000   3.746E-12
  2406.000   3.652E-12
  2408.000   3.582E-12
  2410.000   3.510E-12
  2412.000   3.447E-12
  2414.000   3.401E-12
  2416.000   3.359E-12
  2418.000   3.313E-12
  2420.000   3.269E-12
  2422.000   3.232E-12
  2424.000   3.194E-12
  2426.000   3.153E-12
  2428.000   3.113E-12
  2430.000   3.077E-12
  2432.000   3.044E-12
  2434.000   3.012E-12
  2436.000   2.979E-12
  2438.000   2.940E-12
  2440.000   2.904E-12
  2442.000   2.876E-12
  2444.000   2.846E-12
  2446.000   2.809E-12
  2448.000   2.773E-12
  2450.000   2.741E-12
  2452.000   2.710E-12
  2454.000   2.675E-12
  2456.000   2.642E-12
  2458.000   2.611E-12
  2460.000   2.579E-12
  2462.000   2.547E-12
  2464.000   2.516E-12
  2466.000   2.485E-12
  2468.000   2.455E-12
  2470.000   2.425E-12
  2472.000   2.396E-12
  2474.000   2.368E-12
  2476.000   2.341E-12
  2478.000   2.313E-12
  2480.000   2.286E-12
  2482.000   2.259E-12
  2484.000   2.234E-12
  2486.000   2.212E-12
  2488.000   2.189E-12
  2490.000   2.165E-12
  2492.000   2.142E-12
  2494.000   2.122E-12
  2496.000   2.102E-12
  2498.000   2.081E-12
  2500.000   2.062E-12
  2502.000   2.044E-12
  2504.000   2.027E-12
  2506.000   2.010E-12
  2508.000   1.993E-12
  2510.000   1.978E-12
  2512.000   1.963E-12
  2514.000   1.951E-12
  2516.000   1.938E-12
  2518.000   1.924E-12
  2520.000   1.911E-12
  2522.000   1.899E-12
  2524.000   1.888E-12
  2526.000   1.880E-12
  2528.000   1.870E-12
  2530.000   1.858E-12
  2532.000   1.847E-12
  2534.000   1.838E-12
  2536.000   1.829E-12
  2538.000   1.820E-12
  2540.000   1.812E-12
  2542.000   1.803E-12
  2544.000   1.795E-12
  2546.000   1.788E-12
  2548.000   1.780E-12
  2550.000   1.773E-12
  2552.000   1.764E-12
  2554.000   1.754E-12
  2556.000   1.745E-12
  2558.000   1.736E-12
  2560.000   1.728E-12
  2562.000   1.719E-12
  2564.000   1.711E-12
  2566.000   1.704E-12
  2568.000   1.697E-12
  2570.000   1.691E-12
  2572.000   1.685E-12
  2574.000   1.680E-12
  2576.000   1.675E-12
  2578.000   1.669E-12
  2580.000   1.664E-12
  2582.000   1.658E-12
  2584.000   1.654E-12
  2586.000   1.651E-12
  2588.000   1.647E-12
  2590.000   1.642E-12
  2592.000   1.638E-12
  2594.000   1.635E-12
  2596.000   1.632E-12
  2598.000   1.628E-12
  2600.000   1.625E-12
  2602.000   1.624E-12
  2604.000   1.623E-12
  2606.000   1.622E-12
  2608.000   1.620E-12
  2610.000   1.618E-12
  2612.000   1.617E-12
  2614.000   1.617E-12
  2616.000   1.615E-12
  2618.000   1.613E-12
  2620.000   1.613E-12
  2622.000   1.614E-12
  2624.000   1.614E-12
  2626.000   1.613E-12
  2628.000   1.613E-12
  2630.000   1.613E-12
  2632.000   1.615E-12
  2634.000   1.619E-12
  2636.000   1.621E-12
  2638.000   1.621E-12
  2640.000   1.624E-12
  2642.000   1.629E-12
  2644.000   1.632E-12
  2646.000   1.634E-12
  2648.000   1.637E-12
  2650.000   1.641E-12
  2652.000   1.645E-12
  2654.000   1.649E-12
  2656.000   1.654E-12
  2658.000   1.658E-12
  2660.000   1.663E-12
  2662.000   1.669E-12
  2664.000   1.674E-12
  2666.000   1.680E-12
  2668.000   1.686E-12
  2670.000   1.691E-12
  2672.000   1.697E-12
  2674.000   1.702E-12
  2676.000   1.707E-12
  2678.000   1.712E-12
  2680.000   1.716E-12
  2682.000   1.720E-12
  2684.000   1.723E-12
  2686.000   1.726E-12
  2688.000   1.729E-12
  2690.000   1.730E-12
  2692.000   1.731E-12
  2694.000   1.732E-12
  2696.000   1.732E-12
  2698.000   1.731E-12
  2700.000   1.730E-12
  2702.000   1.728E-12
  2704.000   1.725E-12
  2706.000   1.722E-12
  2708.000   1.719E-12
  2710.000   1.715E-12
  2712.000   1.712E-12
  2714.000   1.709E-12
  2716.000   1.705E-12
  2718.000   1.701E-12
  2720.000   1.698E-12
  2722.000   1.696E-12
  2724.000   1.694E-12
  2726.000   1.692E-12
  2728.000   1.689E-12
  2730.000   1.686E-12
  2732.000   1.683E-12
  2734.000   1.679E-12
  2736.000   1.674E-12
  2738.000   1.669E-12
  2740.000   1.665E-12
  2742.000   1.660E-12
  2744.000   1.655E-12
  2746.000   1.650E-12
  2748.000   1.646E-12
  2750.000   1.641E-12
  2752.000   1.637E-12
  2754.000   1.634E-12
  2756.000   1.630E-12
  2758.000   1.627E-12
  2760.000   1.624E-12
  2762.000   1.622E-12
  2764.000   1.619E-12
  2766.000   1.617E-12
  2768.000   1.615E-12
  2770.000   1.613E-12
  2772.000   1.612E-12
  2774.000   1.610E-12
  2776.000   1.609E-12
  2778.000   1.607E-12
  2780.000   1.606E-12
  2782.000   1.606E-12
  2784.000   1.605E-12
  2786.000   1.605E-12
  2788.000   1.604E-12
  2790.000   1.604E-12
  2792.000   1.603E-12
  2794.000   1.602E-12
  2796.000   1.601E-12
  2798.000   1.600E-12
  2800.000   1.599E-12
  2802.000   1.598E-12
  2804.000   1.598E-12
  2806.000   1.598E-12
  2808.000   1.599E-12
  2810.000   1.599E-12
  2812.000   1.599E-12
  2814.000   1.600E-12
  2816.000   1.600E-12
  2818.000   1.601E-12
  2820.000   1.602E-12
  2822.000   1.603E-12
  2824.000   1.604E-12
  2826.000   1.605E-12
  2828.000   1.606E-12
  2830.000   1.608E-12
  2832.000   1.610E-12
  2834.000   1.612E-12
  2836.000   1.615E-12
  2838.000   1.617E-12
  2840.000   1.620E-12
  2842.000   1.624E-12
  2844.000   1.627E-12
  2846.000   1.631E-12
  2848.000   1.635E-12
  2850.000   1.640E-12
  2852.000   1.644E-12
  2854.000   1.649E-12
  2856.000   1.655E-12
  2858.000   1.660E-12
  2860.000   1.666E-12
  2862.000   1.672E-12
  2864.000   1.679E-12
  2866.000   1.686E-12
  2868.000   1.693E-12
  2870.000   1.701E-12
  2872.000   1.709E-12
  2874.000   1.718E-12
  2876.000   1.727E-12
  2878.000   1.736E-12
  2880.000   1.746E-12
  2882.000   1.756E-12
  2884.000   1.767E-12
  2886.000   1.778E-12
  2888.000   1.790E-12
  2890.000   1.802E-12
  2892.000   1.815E-12
  2894.000   1.829E-12
  2896.000   1.843E-12
  2898.000   1.857E-12
  2900.000   1.870E-12
  2902.000   1.884E-12
  2904.000   1.902E-12
  2906.000   1.921E-12
  2908.000   1.940E-12
  2910.000   1.960E-12
  2912.000   1.980E-12
  2914.000   2.000E-12
  2916.000   2.021E-12
  2918.000   2.043E-12
  2920.000   2.066E-12
  2922.000   2.090E-12
  2924.000   2.114E-12
  2926.000   2.139E-12
  2928.000   2.166E-12
  2930.000   2.197E-12
  2932.000   2.232E-12
  2934.000   2.271E-12
  2936.000   2.312E-12
  2938.000   2.355E-12
  2940.000   2.399E-12
  2942.000   2.445E-12
  2944.000   2.492E-12
  2946.000   2.542E-12
  2948.000   2.593E-12
  2950.000   2.648E-12
  2952.000   2.705E-12
  2954.000   2.764E-12
  2956.000   2.825E-12
  2958.000   2.890E-12
  2960.000   2.959E-12
  2962.000   3.032E-12
  2964.000   3.108E-12
  2966.000   3.187E-12
  2968.000   3.272E-12
  2970.000   3.361E-12
  2972.000   3.455E-12
  2974.000   3.554E-12
  2976.000   3.657E-12
  2978.000   3.767E-12
  2980.000   3.885E-12
  2982.000   4.013E-12
  2984.000   4.150E-12
  2986.000   4.293E-12
  2988.000   4.438E-12
  2990.000   4.584E-12
  2992.000   4.730E-12
  2994.000   4.877E-12
  2996.000   5.026E-12
  2998.000   5.178E-12
  3000.000   5.332E-12
  3002.000   5.486E-12
  3004.000   5.641E-12
  3006.000   5.798E-12
  3008.000   5.963E-12
  3010.000   6.138E-12
  3012.000   6.328E-12
  3014.000   6.531E-12
  3016.000   6.739E-12
  3018.000   6.944E-12
  3020.000   7.139E-12
  3022.000   7.314E-12
  3024.000   7.474E-12
  3026.000   7.634E-12
  3028.000   7.806E-12
  3030.000   8.004E-12
  3032.000   8.239E-12
  3034.000   8.502E-12
  3036.000   8.777E-12
  3038.000   9.045E-12
  3040.000   9.291E-12
  3042.000   9.511E-12
  3044.000   9.715E-12
  3046.000   9.910E-12
  3048.000   1.010E-11
  3050.000   1.029E-11
  3052.000   1.048E-11
  3054.000   1.067E-11
  3056.000   1.086E-11
  3058.000   1.105E-11
  3060.000   1.124E-11
  3062.000   1.144E-11
  3064.000   1.165E-11
  3066.000   1.186E-11
  3068.000   1.207E-11
  3070.000   1.228E-11
  3072.000   1.249E-11
  3074.000   1.271E-11
  3076.000   1.292E-11
  3078.000   1.313E-11
  3080.000   1.332E-11
  3082.000   1.349E-11
  3084.000   1.366E-11
  3086.000   1.381E-11
  3088.000   1.395E-11
  3090.000   1.408E-11
  3092.000   1.421E-11
  3094.000   1.433E-11
  3096.000   1.444E-11
  3098.000   1.454E-11
  3100.000   1.462E-11
  3102.000   1.469E-11
  3104.000   1.475E-11
  3106.000   1.480E-11
  3108.000   1.483E-11
  3110.000   1.486E-11
  3112.000   1.488E-11
  3114.000   1.489E-11
  3116.000   1.489E-11
  3118.000   1.488E-11
  3120.000   1.484E-11
  3122.000   1.476E-11
  3124.000   1.465E-11
  3126.000   1.453E-11
  3128.000   1.441E-11
  3130.000   1.429E-11
  3132.000   1.420E-11
  3134.000   1.411E-11
  3136.000   1.402E-11
  3138.000   1.393E-11
  3140.000   1.383E-11
  3142.000   1.371E-11
  3144.000   1.359E-11
  3146.000   1.346E-11
  3148.000   1.334E-11
  3150.000   1.324E-11
  3152.000   1.314E-11
  3154.000   1.305E-11
  3156.000   1.297E-11
  3158.000   1.290E-11
  3160.000   1.284E-11
  3162.000   1.279E-11
  3164.000   1.275E-11
  3166.000   1.273E-11
  3168.000   1.272E-11
  3170.000   1.273E-11
  3172.000   1.277E-11
  3174.000   1.284E-11
  3176.000   1.292E-11
  3178.000   1.301E-11
  3180.000   1.309E-11
  3182.000   1.317E-11
  3184.000   1.324E-11
  3186.000   1.331E-11
  3188.000   1.340E-11
  3190.000   1.349E-11
  3192.000   1.361E-11
  3194.000   1.375E-11
  3196.000   1.389E-11
  3198.000   1.402E-11
  3200.000   1.414E-11
  3202.000   1.424E-11
  3204.000   1.433E-11
  3206.000   1.442E-11
  3208.000   1.449E-11
  3210.000   1.456E-11
  3212.000   1.463E-11
  3214.000   1.469E-11
  3216.000   1.474E-11
  3218.000   1.478E-11
  3220.000   1.481E-11
  3222.000   1.482E-11
  3224.000   1.482E-11
  3226.000   1.481E-11
  3228.000   1.478E-11
  3230.000   1.476E-11
  3232.000   1.472E-11
  3234.000   1.468E-11
  3236.000   1.463E-11
  3238.000   1.458E-11
  3240.000   1.453E-11
  3242.000   1.449E-11
  3244.000   1.445E-11
  3246.000   1.441E-11
  3248.000   1.437E-11
  3250.000   1.432E-11
  3252.000   1.425E-11
  3254.000   1.417E-11
  3256.000   1.408E-11
  3258.000   1.399E-11
  3260.000   1.391E-11
  3262.000   1.383E-11
  3264.000   1.374E-11
  3266.000   1.366E-11
  3268.000   1.358E-11
  3270.000   1.351E-11
  3272.000   1.346E-11
  3274.000   1.341E-11
  3276.000   1.337E-11
  3278.000   1.333E-11
  3280.000   1.328E-11
  3282.000   1.321E-11
  3284.000   1.314E-11
  3286.000   1.307E-11
  3288.000   1.301E-11
  3290.000   1.295E-11
  3292.000   1.291E-11
  3294.000   1.288E-11
  3296.000   1.286E-11
  3298.000   1.283E-11
  3300.000   1.281E-11
  3302.000   1.278E-11
  3304.000   1.275E-11
  3306.000   1.272E-11
  3308.000   1.270E-11
  3310.000   1.269E-11
  3312.000   1.269E-11
  3314.000   1.269E-11
  3316.000   1.270E-11
  3318.000   1.273E-11
  3320.000   1.277E-11
  3322.000   1.283E-11
  3324.000   1.291E-11
  3326.000   1.300E-11
  3328.000   1.310E-11
  3330.000   1.321E-11
  3332.000   1.333E-11
  3334.000   1.347E-11
  3336.000   1.362E-11
  3338.000   1.377E-11
  3340.000   1.392E-11
  3342.000   1.408E-11
  3344.000   1.423E-11
  3346.000   1.438E-11
  3348.000   1.456E-11
  3350.000   1.475E-11
  3352.000   1.497E-11
  3354.000   1.520E-11
  3356.000   1.545E-11
  3358.000   1.572E-11
  3360.000   1.601E-11
  3362.000   1.632E-11
  3364.000   1.666E-11
  3366.000   1.701E-11
  3368.000   1.737E-11
  3370.000   1.771E-11
  3372.000   1.804E-11
  3374.000   1.836E-11
  3376.000   1.868E-11
  3378.000   1.902E-11
  3380.000   1.938E-11
  3382.000   1.976E-11
  3384.000   2.015E-11
  3386.000   2.056E-11
  3388.000   2.099E-11
  3390.000   2.145E-11
  3392.000   2.193E-11
  3394.000   2.244E-11
  3396.000   2.297E-11
  3398.000   2.352E-11
  3400.000   2.407E-11
  3402.000   2.463E-11
  3404.000   2.520E-11
  3406.000   2.579E-11
  3408.000   2.639E-11
  3410.000   2.700E-11
  3412.000   2.762E-11
  3414.000   2.823E-11
  3416.000   2.887E-11
  3418.000   2.954E-11
  3420.000   3.027E-11
  3422.000   3.108E-11
  3424.000   3.194E-11
  3426.000   3.284E-11
  3428.000   3.376E-11
  3430.000   3.468E-11
  3432.000   3.557E-11
  3434.000   3.645E-11
  3436.000   3.735E-11
  3438.000   3.830E-11
  3440.000   3.935E-11
  3442.000   4.050E-11
  3444.000   4.175E-11
  3446.000   4.306E-11
  3448.000   4.437E-11
  3450.000   4.566E-11
  3452.000   4.688E-11
  3454.000   4.808E-11
  3456.000   4.929E-11
  3458.000   5.056E-11
  3460.000   5.193E-11
  3462.000   5.342E-11
  3464.000   5.500E-11
  3466.000   5.664E-11
  3468.000   5.832E-11
  3470.000   6.001E-11
  3472.000   6.167E-11
  3474.000   6.334E-11
  3476.000   6.504E-11
  3478.000   6.684E-11
  3480.000   6.876E-11
  3482.000   7.084E-11
  3484.000   7.305E-11
  3486.000   7.534E-11
  3488.000   7.770E-11
  3490.000   8.008E-11
  3492.000   8.246E-11
  3494.000   8.485E-11
  3496.000   8.731E-11
  3498.000   8.989E-11
  3500.000   9.263E-11
  3502.000   9.560E-11
  3504.000   9.875E-11
  3506.000   1.020E-10
  3508.000   1.053E-10
  3510.000   1.086E-10
  3512.000   1.117E-10
  3514.000   1.147E-10
  3516.000   1.178E-10
  3518.000   1.211E-10
  3520.000   1.247E-10
  3522.000   1.287E-10
  3524.000   1.329E-10
  3526.000   1.373E-10
  3528.000   1.418E-10
  3530.000   1.464E-10
  3532.000   1.511E-10
  3534.000   1.558E-10
  3536.000   1.606E-10
  3538.000   1.656E-10
  3540.000   1.708E-10
  3542.000   1.762E-10
  3544.000   1.818E-10
  3546.000   1.875E-10
  3548.000   1.935E-10
  3550.000   1.997E-10
  3552.000   2.059E-10
  3554.000   2.122E-10
  3556.000   2.188E-10
  3558.000   2.260E-10
  3560.000   2.339E-10
  3562.000   2.428E-10
  3564.000   2.526E-10
  3566.000   2.629E-10
  3568.000   2.733E-10
  3570.000   2.835E-10
  3572.000   2.931E-10
  3574.000   3.024E-10
  3576.000   3.119E-10
  3578.000   3.222E-10
  3580.000   3.337E-10
  3582.000   3.470E-10
  3584.000   3.615E-10
  3586.000   3.768E-10
  3588.000   3.923E-10
  3590.000   4.076E-10
  3592.000   4.222E-10
  3594.000   4.366E-10
  3596.000   4.512E-10
  3598.000   4.666E-10
  3600.000   4.833E-10
  3602.000   5.014E-10
  3604.000   5.205E-10
  3606.000   5.406E-10
  3608.000   5.612E-10
  3610.000   5.823E-10
  3612.000   6.036E-10
  3614.000   6.254E-10
  3616.000   6.477E-10
  3618.000   6.710E-10
  3620.000   6.953E-10
  3622.000   7.216E-10
  3624.000   7.498E-10
  3626.000   7.785E-10
  3628.000   8.062E-10
  3630.000   8.317E-10
  3632.000   8.534E-10
  3634.000   8.725E-10
  3636.000   8.908E-10
  3638.000   9.104E-10
  3640.000   9.332E-10
  3642.000   9.607E-10
  3644.000   9.914E-10
  3646.000   1.023E-09
  3648.000   1.055E-09
  3650.000   1.083E-09
  3652.000   1.108E-09
  3654.000   1.131E-09
  3656.000   1.153E-09
  3658.000   1.173E-09
  3660.000   1.193E-09
  3662.000   1.212E-09
  3664.000   1.228E-09
  3666.000   1.244E-09
  3668.000   1.261E-09
  3670.000   1.280E-09
  3672.000   1.303E-09
  3674.000   1.328E-09
  3676.000   1.353E-09
  3678.000   1.377E-09
  3680.000   1.399E-09
  3682.000   1.418E-09
  3684.000   1.435E-09
  3686.000   1.451E-09
  3688.000   1.465E-09
  3690.000   1.479E-09
  3692.000   1.492E-09
  3694.000   1.504E-09
  3696.000   1.514E-09
  3698.000   1.525E-09
  3700.000   1.537E-09
  3702.000   1.550E-09
  3704.000   1.564E-09
  3706.000   1.578E-09
  3708.000   1.593E-09
  3710.000   1.607E-09
  3712.000   1.621E-09
  3714.000   1.637E-09
  3716.000   1.651E-09
  3718.000   1.666E-09
  3720.000   1.679E-09
  3722.000   1.691E-09
  3724.000   1.702E-09
  3726.000   1.712E-09
  3728.000   1.722E-09
  3730.000   1.732E-09
  3732.000   1.742E-09
  3734.000   1.751E-09
  3736.000   1.760E-09
  3738.000   1.770E-09
  3740.000   1.780E-09
  3742.000   1.792E-09
  3744.000   1.804E-09
  3746.000   1.817E-09
  3748.000   1.828E-09
  3750.000   1.835E-09
  3752.000   1.838E-09
  3754.000   1.837E-09
  3756.000   1.834E-09
  3758.000   1.831E-09
  3760.000   1.828E-09
  3762.000   1.827E-09
  3764.000   1.825E-09
  3766.000   1.824E-09
  3768.000   1.822E-09
  3770.000   1.819E-09
  3772.000   1.816E-09
  3774.000   1.812E-09
  3776.000   1.807E-09
  3778.000   1.803E-09
  3780.000   1.798E-09
  3782.000   1.794E-09
  3784.000   1.789E-09
  3786.000   1.785E-09
  3788.000   1.780E-09
  3790.000   1.776E-09
  3792.000   1.771E-09
  3794.000   1.766E-09
  3796.000   1.762E-09
  3798.000   1.759E-09
  3800.000   1.759E-09
  3802.000   1.764E-09
  3804.000   1.772E-09
  3806.000   1.781E-09
  3808.000   1.789E-09
  3810.000   1.792E-09
  3812.000   1.789E-09
  3814.000   1.783E-09
  3816.000   1.774E-09
  3818.000   1.765E-09
  3820.000   1.756E-09
  3822.000   1.748E-09
  3824.000   1.741E-09
  3826.000   1.733E-09
  3828.000   1.723E-09
  3830.000   1.711E-09
  3832.000   1.695E-09
  3834.000   1.678E-09
  3836.000   1.658E-09
  3838.000   1.635E-09
  3840.000   1.609E-09
  3842.000   1.579E-09
  3844.000   1.543E-09
  3846.000   1.506E-09
  3848.000   1.469E-09
  3850.000   1.435E-09
  3852.000   1.405E-09
  3854.000   1.377E-09
  3856.000   1.350E-09
  3858.000   1.322E-09
  3860.000   1.291E-09
  3862.000   1.255E-09
  3864.000   1.217E-09
  3866.000   1.177E-09
  3868.000   1.137E-09
  3870.000   1.100E-09
  3872.000   1.064E-09
  3874.000   1.029E-09
  3876.000   9.948E-10
  3878.000   9.607E-10
  3880.000   9.262E-10
  3882.000   8.908E-10
  3884.000   8.546E-10
  3886.000   8.187E-10
  3888.000   7.842E-10
  3890.000   7.520E-10
  3892.000   7.226E-10
  3894.000   6.953E-10
  3896.000   6.695E-10
  3898.000   6.446E-10
  3900.000   6.199E-10
  3902.000   5.953E-10
  3904.000   5.713E-10
  3906.000   5.480E-10
  3908.000   5.256E-10
  3910.000   5.040E-10
  3912.000   4.832E-10
  3914.000   4.632E-10
  3916.000   4.440E-10
  3918.000   4.258E-10
  3920.000   4.087E-10
  3922.000   3.929E-10
  3924.000   3.783E-10
  3926.000   3.646E-10
  3928.000   3.514E-10
  3930.000   3.385E-10
  3932.000   3.255E-10
  3934.000   3.129E-10
  3936.000   3.007E-10
  3938.000   2.892E-10
  3940.000   2.785E-10
  3942.000   2.688E-10
  3944.000   2.600E-10
  3946.000   2.518E-10
  3948.000   2.439E-10
  3950.000   2.362E-10
  3952.000   2.286E-10
  3954.000   2.212E-10
  3956.000   2.142E-10
  3958.000   2.074E-10
  3960.000   2.009E-10
  3962.000   1.947E-10
  3964.000   1.889E-10
  3966.000   1.833E-10
  3968.000   1.779E-10
  3970.000   1.727E-10
  3972.000   1.676E-10
  3974.000   1.627E-10
  3976.000   1.580E-10
  3978.000   1.534E-10
  3980.000   1.489E-10
  3982.000   1.447E-10
  3984.000   1.405E-10
  3986.000   1.366E-10
  3988.000   1.327E-10
  3990.000   1.291E-10
  3992.000   1.256E-10
  3994.000   1.224E-10
  3996.000   1.193E-10
  3998.000   1.162E-10
  4000.000   1.133E-10
  4002.000   1.104E-10
  4004.000   1.076E-10
  4006.000   1.048E-10
  4008.000   1.022E-10
  4010.000   9.961E-11
  4012.000   9.714E-11
  4014.000   9.477E-11
  4016.000   9.247E-11
  4018.000   9.023E-11
  4020.000   8.803E-11
  4022.000   8.585E-11
  4024.000   8.372E-11
  4026.000   8.164E-11
  4028.000   7.961E-11
  4030.000   7.764E-11
  4032.000   7.572E-11
  4034.000   7.386E-11
  4036.000   7.206E-11
  4038.000   7.030E-11
  4040.000   6.860E-11
  4042.000   6.695E-11
  4044.000   6.536E-11
  4046.000   6.382E-11
  4048.000   6.231E-11
  4050.000   6.082E-11
  4052.000   5.934E-11
  4054.000   5.789E-11
  4056.000   5.647E-11
  4058.000   5.509E-11
  4060.000   5.375E-11
  4062.000   5.247E-11
  4064.000   5.123E-11
  4066.000   5.003E-11
  4068.000   4.887E-11
  4070.000   4.772E-11
  4072.000   4.660E-11
  4074.000   4.552E-11
  4076.000   4.446E-11
  4078.000   4.342E-11
  4080.000   4.240E-11
  4082.000   4.141E-11
  4084.000   4.043E-11
  4086.000   3.948E-11
  4088.000   3.855E-11
  4090.000   3.765E-11
  4092.000   3.676E-11
  4094.000   3.590E-11
  4096.000   3.505E-11
  4098.000   3.423E-11
  4100.000   3.344E-11
  4102.000   3.268E-11
  4104.000   3.194E-11
  4106.000   3.123E-11
  4108.000   3.053E-11
  4110.000   2.984E-11
  4112.000   2.915E-11
  4114.000   2.846E-11
  4116.000   2.779E-11
  4118.000   2.713E-11
  4120.000   2.649E-11
  4122.000   2.588E-11
  4124.000   2.528E-11
  4126.000   2.470E-11
  4128.000   2.414E-11
  4130.000   2.359E-11
  4132.000   2.305E-11
  4134.000   2.252E-11
  4136.000   2.201E-11
  4138.000   2.151E-11
  4140.000   2.101E-11
  4142.000   2.053E-11
  4144.000   2.005E-11
  4146.000   1.959E-11
  4148.000   1.913E-11
  4150.000   1.869E-11
  4152.000   1.827E-11
  4154.000   1.786E-11
  4156.000   1.747E-11
  4158.000   1.708E-11
  4160.000   1.669E-11
  4162.000   1.631E-11
  4164.000   1.593E-11
  4166.000   1.555E-11
  4168.000   1.519E-11
  4170.000   1.484E-11
  4172.000   1.449E-11
  4174.000   1.416E-11
  4176.000   1.384E-11
  4178.000   1.352E-11
  4180.000   1.321E-11
  4182.000   1.291E-11
  4184.000   1.262E-11
  4186.000   1.233E-11
  4188.000   1.205E-11
  4190.000   1.178E-11
  4192.000   1.151E-11
  4194.000   1.125E-11
  4196.000   1.100E-11
  4198.000   1.075E-11
  4200.000   1.051E-11
  4202.000   1.028E-11
  4204.000   1.005E-11
  4206.000   9.826E-12
  4208.000   9.608E-12
  4210.000   9.393E-12
  4212.000   9.182E-12
  4214.000   8.977E-12
  4216.000   8.775E-12
  4218.000   8.578E-12
  4220.000   8.386E-12
  4222.000   8.198E-12
  4224.000   8.014E-12
  4226.000   7.835E-12
  4228.000   7.660E-12
  4230.000   7.489E-12
  4232.000   7.323E-12
  4234.000   7.163E-12
  4236.000   7.007E-12
  4238.000   6.853E-12
  4240.000   6.701E-12
  4242.000   6.550E-12
  4244.000   6.399E-12
  4246.000   6.252E-12
  4248.000   6.108E-12
  4250.000   5.970E-12
  4252.000   5.837E-12
  4254.000   5.708E-12
  4256.000   5.584E-12
  4258.000   5.466E-12
  4260.000   5.354E-12
  4262.000   5.250E-12
  4264.000   5.151E-12
  4266.000   5.059E-12
  4268.000   4.973E-12
  4270.000   4.892E-12
  4272.000   4.818E-12
  4274.000   4.750E-12
  4276.000   4.688E-12
  4278.000   4.629E-12
  4280.000   4.573E-12
  4282.000   4.521E-12
  4284.000   4.474E-12
  4286.000   4.430E-12
  4288.000   4.387E-12
  4290.000   4.342E-12
  4292.000   4.298E-12
  4294.000   4.253E-12
  4296.000   4.209E-12
  4298.000   4.165E-12
  4300.000   4.120E-12
  4302.000   4.075E-12
  4304.000   4.028E-12
  4306.000   3.982E-12
  4308.000   3.936E-12
  4310.000   3.892E-12
  4312.000   3.848E-12
  4314.000   3.805E-12
  4316.000   3.763E-12
  4318.000   3.722E-12
  4320.000   3.681E-12
  4322.000   3.641E-12
  4324.000   3.602E-12
  4326.000   3.564E-12
  4328.000   3.526E-12
  4330.000   3.489E-12
  4332.000   3.452E-12
  4334.000   3.416E-12
  4336.000   3.380E-12
  4338.000   3.345E-12
  4340.000   3.310E-12
  4342.000   3.277E-12
  4344.000   3.244E-12
  4346.000   3.211E-12
  4348.000   3.179E-12
  4350.000   3.148E-12
  4352.000   3.117E-12
  4354.000   3.087E-12
  4356.000   3.057E-12
  4358.000   3.028E-12
  4360.000   2.999E-12
  4362.000   2.970E-12
  4364.000   2.942E-12
  4366.000   2.915E-12
  4368.000   2.888E-12
  4370.000   2.861E-12
  4372.000   2.835E-12
  4374.000   2.809E-12
  4376.000   2.784E-12
  4378.000   2.760E-12
  4380.000   2.735E-12
  4382.000   2.711E-12
  4384.000   2.688E-12
  4386.000   2.665E-12
  4388.000   2.642E-12
  4390.000   2.619E-12
  4392.000   2.597E-12
  4394.000   2.575E-12
  4396.000   2.554E-12
  4398.000   2.533E-12
  4400.000   2.512E-12
  4402.000   2.492E-12
  4404.000   2.472E-12
  4406.000   2.452E-12
  4408.000   2.433E-12
  4410.000   2.414E-12
  4412.000   2.395E-12
  4414.000   2.377E-12
  4416.000   2.359E-12
  4418.000   2.341E-12
  4420.000   2.324E-12
  4422.000   2.307E-12
  4424.000   2.290E-12
  4426.000   2.273E-12
  4428.000   2.256E-12
  4430.000   2.240E-12
  4432.000   2.224E-12
  4434.000   2.208E-12
  4436.000   2.193E-12
  4438.000   2.178E-12
  4440.000   2.163E-12
  4442.000   2.149E-12
  4444.000   2.134E-12
  4446.000   2.120E-12
  4448.000   2.106E-12
  4450.000   2.093E-12
  4452.000   2.079E-12
  4454.000   2.066E-12
  4456.000   2.052E-12
  4458.000   2.040E-12
  4460.000   2.027E-12
  4462.000   2.015E-12
  4464.000   2.002E-12
  4466.000   1.991E-12
  4468.000   1.979E-12
  4470.000   1.968E-12
  4472.000   1.956E-12
  4474.000   1.945E-12
  4476.000   1.934E-12
  4478.000   1.923E-12
  4480.000   1.912E-12
  4482.000   1.902E-12
  4484.000   1.892E-12
  4486.000   1.882E-12
  4488.000   1.872E-12
  4490.000   1.862E-12
  4492.000   1.853E-12
  4494.000   1.844E-12
  4496.000   1.835E-12
  4498.000   1.826E-12
  4500.000   1.817E-12
  4502.000   1.809E-12
  4504.000   1.800E-12
  4506.000   1.792E-12
  4508.000   1.784E-12
  4510.000   1.776E-12
  4512.000   1.769E-12
  4514.000   1.761E-12
  4516.000   1.754E-12
  4518.000   1.747E-12
  4520.000   1.740E-12
  4522.000   1.733E-12
  4524.000   1.726E-12
  4526.000   1.720E-12
  4528.000   1.714E-12
  4530.000   1.707E-12
  4532.000   1.701E-12
  4534.000   1.695E-12
  4536.000   1.689E-12
  4538.000   1.684E-12
  4540.000   1.678E-12
  4542.000   1.673E-12
  4544.000   1.668E-12
  4546.000   1.664E-12
  4548.000   1.659E-12
  4550.000   1.654E-12
  4552.000   1.649E-12
  4554.000   1.644E-12
  4556.000   1.639E-12
  4558.000   1.635E-12
  4560.000   1.630E-12
  4562.000   1.626E-12
  4564.000   1.621E-12
  4566.000   1.617E-12
  4568.000   1.613E-12
  4570.000   1.609E-12
  4572.000   1.605E-12
  4574.000   1.602E-12
  4576.000   1.598E-12
  4578.000   1.595E-12
  4580.000   1.592E-12
  4582.000   1.588E-12
  4584.000   1.585E-12
  4586.000   1.582E-12
  4588.000   1.580E-12
  4590.000   1.577E-12
  4592.000   1.574E-12
  4594.000   1.572E-12
  4596.000   1.570E-12
  4598.000   1.567E-12
  4600.000   1.565E-12
  4602.000   1.562E-12
  4604.000   1.560E-12
  4606.000   1.557E-12
  4608.000   1.555E-12
  4610.000   1.552E-12
  4612.000   1.550E-12
  4614.000   1.547E-12
  4616.000   1.544E-12
  4618.000   1.541E-12
  4620.000   1.538E-12
  4622.000   1.535E-12
  4624.000   1.531E-12
  4626.000   1.528E-12
  4628.000   1.524E-12
  4630.000   1.520E-12
  4632.000   1.517E-12
  4634.000   1.513E-12
  4636.000   1.510E-12
  4638.000   1.506E-12
  4640.000   1.502E-12
  4642.000   1.499E-12
  4644.000   1.495E-12
  4646.000   1.491E-12
  4648.000   1.486E-12
  4650.000   1.482E-12
  4652.000   1.477E-12
  4654.000   1.472E-12
  4656.000   1.467E-12
  4658.000   1.461E-12
  4660.000   1.456E-12
  4662.000   1.452E-12
  4664.000   1.447E-12
  4666.000   1.442E-12
  4668.000   1.438E-12
  4670.000   1.434E-12
  4672.000   1.430E-12
  4674.000   1.427E-12
  4676.000   1.424E-12
  4678.000   1.421E-12
  4680.000   1.419E-12
  4682.000   1.416E-12
  4684.000   1.414E-12
  4686.000   1.412E-12
  4688.000   1.411E-12
  4690.000   1.409E-12
  4692.000   1.408E-12
  4694.000   1.406E-12
  4696.000   1.405E-12
  4698.000   1.404E-12
  4700.000   1.403E-12
  4702.000   1.402E-12
  4704.000   1.400E-12
  4706.000   1.399E-12
  4708.000   1.397E-12
  4710.000   1.396E-12
  4712.000   1.395E-12
  4714.000   1.394E-12
  4716.000   1.393E-12
  4718.000   1.391E-12
  4720.000   1.391E-12
  4722.000   1.390E-12
  4724.000   1.389E-12
  4726.000   1.389E-12
  4728.000   1.389E-12
  4730.000   1.388E-12
  4732.000   1.388E-12
  4734.000   1.388E-12
  4736.000   1.387E-12
  4738.000   1.387E-12
  4740.000   1.387E-12
  4742.000   1.387E-12
  4744.000   1.386E-12
  4746.000   1.386E-12
  4748.000   1.386E-12
  4750.000   1.386E-12
  4752.000   1.386E-12
  4754.000   1.386E-12
  4756.000   1.386E-12
  4758.000   1.387E-12
  4760.000   1.387E-12
  4762.000   1.388E-12
  4764.000   1.388E-12
  4766.000   1.389E-12
  4768.000   1.389E-12
  4770.000   1.390E-12
  4772.000   1.391E-12
  4774.000   1.393E-12
  4776.000   1.394E-12
  4778.000   1.395E-12
  4780.000   1.397E-12
  4782.000   1.398E-12
  4784.000   1.399E-12
  4786.000   1.401E-12
  4788.000   1.402E-12
  4790.000   1.404E-12
  4792.000   1.406E-12
  4794.000   1.408E-12
  4796.000   1.410E-12
  4798.000   1.412E-12
  4800.000   1.414E-12
  4802.000   1.416E-12
  4804.000   1.419E-12
  4806.000   1.421E-12
  4808.000   1.424E-12
  4810.000   1.426E-12
  4812.000   1.429E-12
  4814.000   1.433E-12
  4816.000   1.436E-12
  4818.000   1.439E-12
  4820.000   1.443E-12
  4822.000   1.446E-12
  4824.000   1.449E-12
  4826.000   1.453E-12
  4828.000   1.456E-12
  4830.000   1.460E-12
  4832.000   1.464E-12
  4834.000   1.467E-12
  4836.000   1.471E-12
  4838.000   1.475E-12
  4840.000   1.480E-12
  4842.000   1.484E-12
  4844.000   1.489E-12
  4846.000   1.494E-12
  4848.000   1.499E-12
  4850.000   1.503E-12
  4852.000   1.508E-12
  4854.000   1.514E-12
  4856.000   1.519E-12
  4858.000   1.524E-12
  4860.000   1.529E-12
  4862.000   1.535E-12
  4864.000   1.540E-12
  4866.000   1.546E-12
  4868.000   1.552E-12
  4870.000   1.558E-12
  4872.000   1.564E-12
  4874.000   1.570E-12
  4876.000   1.577E-12
  4878.000   1.584E-12
  4880.000   1.591E-12
  4882.000   1.597E-12
  4884.000   1.604E-12
  4886.000   1.611E-12
  4888.000   1.618E-12
  4890.000   1.626E-12
  4892.000   1.634E-12
  4894.000   1.642E-12
  4896.000   1.651E-12
  4898.000   1.660E-12
  4900.000   1.669E-12
  4902.000   1.679E-12
  4904.000   1.689E-12
  4906.000   1.700E-12
  4908.000   1.711E-12
  4910.000   1.722E-12
  4912.000   1.733E-12
  4914.000   1.745E-12
  4916.000   1.757E-12
  4918.000   1.769E-12
  4920.000   1.780E-12
  4922.000   1.791E-12
  4924.000   1.801E-12
  4926.000   1.811E-12
  4928.000   1.822E-12
  4930.000   1.833E-12
  4932.000   1.844E-12
  4934.000   1.855E-12
  4936.000   1.867E-12
  4938.000   1.879E-12
  4940.000   1.895E-12
  4942.000   1.912E-12
  4944.000   1.930E-12
  4946.000   1.950E-12
  4948.000   1.972E-12
  4950.000   1.998E-12
  4952.000   2.027E-12
  4954.000   2.059E-12
  4956.000   2.094E-12
  4958.000   2.132E-12
  4960.000   2.172E-12
  4962.000   2.215E-12
  4964.000   2.261E-12
  4966.000   2.310E-12
  4968.000   2.360E-12
  4970.000   2.411E-12
  4972.000   2.464E-12
  4974.000   2.517E-12
  4976.000   2.572E-12
  4978.000   2.627E-12
  4980.000   2.684E-12
  4982.000   2.741E-12
  4984.000   2.798E-12
  4986.000   2.857E-12
  4988.000   2.916E-12
  4990.000   2.978E-12
  4992.000   3.041E-12
  4994.000   3.106E-12
  4996.000   3.172E-12
  4998.000   3.240E-12
  5000.000   3.310E-12
  5002.000   3.383E-12
  5004.000   3.457E-12
  5006.000   3.534E-12
  5008.000   3.612E-12
  5010.000   3.693E-12
  5012.000   3.775E-12
  5014.000   3.860E-12
  5016.000   3.946E-12
  5018.000   4.036E-12
  5020.000   4.129E-12
  5022.000   4.224E-12
  5024.000   4.322E-12
  5026.000   4.423E-12
  5028.000   4.527E-12
  5030.000   4.635E-12
  5032.000   4.747E-12
  5034.000   4.863E-12
  5036.000   4.981E-12
  5038.000   5.103E-12
  5040.000   5.228E-12
  5042.000   5.355E-12
  5044.000   5.484E-12
  5046.000   5.616E-12
  5048.000   5.753E-12
  5050.000   5.895E-12
  5052.000   6.044E-12
  5054.000   6.196E-12
  5056.000   6.354E-12
  5058.000   6.517E-12
  5060.000   6.685E-12
  5062.000   6.857E-12
  5064.000   7.033E-12
  5066.000   7.215E-12
  5068.000   7.403E-12
  5070.000   7.599E-12
  5072.000   7.803E-12
  5074.000   8.014E-12
  5076.000   8.231E-12
  5078.000   8.455E-12
  5080.000   8.685E-12
  5082.000   8.918E-12
  5084.000   9.155E-12
  5086.000   9.399E-12
  5088.000   9.653E-12
  5090.000   9.918E-12
  5092.000   1.020E-11
  5094.000   1.048E-11
  5096.000   1.078E-11
  5098.000   1.109E-11
  5100.000   1.141E-11
  5102.000   1.173E-11
  5104.000   1.206E-11
  5106.000   1.240E-11
  5108.000   1.276E-11
  5110.000   1.315E-11
  5112.000   1.356E-11
  5114.000   1.399E-11
  5116.000   1.443E-11
  5118.000   1.490E-11
  5120.000   1.538E-11
  5122.000   1.588E-11
  5124.000   1.639E-11
  5126.000   1.692E-11
  5128.000   1.747E-11
  5130.000   1.805E-11
  5132.000   1.866E-11
  5134.000   1.929E-11
  5136.000   1.995E-11
  5138.000   2.063E-11
  5140.000   2.135E-11
  5142.000   2.208E-11
  5144.000   2.282E-11
  5146.000   2.361E-11
  5148.000   2.445E-11
  5150.000   2.539E-11
  5152.000   2.644E-11
  5154.000   2.758E-11
  5156.000   2.878E-11
  5158.000   3.001E-11
  5160.000   3.123E-11
  5162.000   3.241E-11
  5164.000   3.358E-11
  5166.000   3.477E-11
  5168.000   3.607E-11
  5170.000   3.751E-11
  5172.000   3.913E-11
  5174.000   4.088E-11
  5176.000   4.274E-11
  5178.000   4.466E-11
  5180.000   4.661E-11
  5182.000   4.860E-11
  5184.000   5.065E-11
  5186.000   5.275E-11
  5188.000   5.490E-11
  5190.000   5.708E-11
  5192.000   5.925E-11
  5194.000   6.143E-11
  5196.000   6.367E-11
  5198.000   6.602E-11
  5200.000   6.854E-11
  5202.000   7.130E-11
  5204.000   7.427E-11
  5206.000   7.732E-11
  5208.000   8.036E-11
  5210.000   8.327E-11
  5212.000   8.601E-11
  5214.000   8.864E-11
  5216.000   9.124E-11
  5218.000   9.388E-11
  5220.000   9.663E-11
  5222.000   9.954E-11
  5224.000   1.026E-10
  5226.000   1.056E-10
  5228.000   1.086E-10
  5230.000   1.115E-10
  5232.000   1.143E-10
  5234.000   1.169E-10
  5236.000   1.195E-10
  5238.000   1.221E-10
  5240.000   1.247E-10
  5242.000   1.274E-10
  5244.000   1.301E-10
  5246.000   1.328E-10
  5248.000   1.353E-10
  5250.000   1.375E-10
  5252.000   1.392E-10
  5254.000   1.406E-10
  5256.000   1.418E-10
  5258.000   1.431E-10
  5260.000   1.446E-10
  5262.000   1.465E-10
  5264.000   1.488E-10
  5266.000   1.510E-10
  5268.000   1.531E-10
  5270.000   1.547E-10
  5272.000   1.558E-10
  5274.000   1.565E-10
  5276.000   1.569E-10
  5278.000   1.574E-10
  5280.000   1.579E-10
  5282.000   1.585E-10
  5284.000   1.590E-10
  5286.000   1.596E-10
  5288.000   1.603E-10
  5290.000   1.613E-10
  5292.000   1.625E-10
  5294.000   1.639E-10
  5296.000   1.655E-10
  5298.000   1.671E-10
  5300.000   1.688E-10
  5302.000   1.706E-10
  5304.000   1.726E-10
  5306.000   1.746E-10
  5308.000   1.765E-10
  5310.000   1.784E-10
  5312.000   1.802E-10
  5314.000   1.820E-10
  5316.000   1.838E-10
  5318.000   1.855E-10
  5320.000   1.872E-10
  5322.000   1.889E-10
  5324.000   1.905E-10
  5326.000   1.922E-10
  5328.000   1.938E-10
  5330.000   1.955E-10
  5332.000   1.972E-10
  5334.000   1.990E-10
  5336.000   2.008E-10
  5338.000   2.025E-10
  5340.000   2.040E-10
  5342.000   2.053E-10
  5344.000   2.064E-10
  5346.000   2.074E-10
  5348.000   2.084E-10
  5350.000   2.092E-10
  5352.000   2.101E-10
  5354.000   2.108E-10
  5356.000   2.115E-10
  5358.000   2.121E-10
  5360.000   2.125E-10
  5362.000   2.128E-10
  5364.000   2.130E-10
  5366.000   2.131E-10
  5368.000   2.131E-10
  5370.000   2.130E-10
  5372.000   2.128E-10
  5374.000   2.126E-10
  5376.000   2.123E-10
  5378.000   2.119E-10
  5380.000   2.114E-10
  5382.000   2.108E-10
  5384.000   2.100E-10
  5386.000   2.091E-10
  5388.000   2.082E-10
  5390.000   2.074E-10
  5392.000   2.067E-10
  5394.000   2.060E-10
  5396.000   2.054E-10
  5398.000   2.045E-10
  5400.000   2.032E-10
  5402.000   2.015E-10
  5404.000   1.995E-10
  5406.000   1.972E-10
  5408.000   1.949E-10
  5410.000   1.926E-10
  5412.000   1.906E-10
  5414.000   1.886E-10
  5416.000   1.866E-10
  5418.000   1.844E-10
  5420.000   1.819E-10
  5422.000   1.790E-10
  5424.000   1.758E-10
  5426.000   1.724E-10
  5428.000   1.688E-10
  5430.000   1.651E-10
  5432.000   1.611E-10
  5434.000   1.567E-10
  5436.000   1.522E-10
  5438.000   1.479E-10
  5440.000   1.439E-10
  5442.000   1.405E-10
  5444.000   1.375E-10
  5446.000   1.346E-10
  5448.000   1.315E-10
  5450.000   1.279E-10
  5452.000   1.237E-10
  5454.000   1.190E-10
  5456.000   1.141E-10
  5458.000   1.094E-10
  5460.000   1.052E-10
  5462.000   1.016E-10
  5464.000   9.833E-11
  5466.000   9.531E-11
  5468.000   9.232E-11
  5470.000   8.917E-11
  5472.000   8.578E-11
  5474.000   8.229E-11
  5476.000   7.880E-11
  5478.000   7.542E-11
  5480.000   7.228E-11
  5482.000   6.939E-11
  5484.000   6.667E-11
  5486.000   6.410E-11
  5488.000   6.165E-11
  5490.000   5.930E-11
  5492.000   5.707E-11
  5494.000   5.497E-11
  5496.000   5.298E-11
  5498.000   5.106E-11
  5500.000   4.920E-11
  5502.000   4.739E-11
  5504.000   4.564E-11
  5506.000   4.397E-11
  5508.000   4.236E-11
  5510.000   4.081E-11
  5512.000   3.932E-11
  5514.000   3.790E-11
  5516.000   3.655E-11
  5518.000   3.525E-11
  5520.000   3.401E-11
  5522.000   3.283E-11
  5524.000   3.170E-11
  5526.000   3.063E-11
  5528.000   2.962E-11
  5530.000   2.865E-11
  5532.000   2.774E-11
  5534.000   2.688E-11
  5536.000   2.607E-11
  5538.000   2.529E-11
  5540.000   2.453E-11
  5542.000   2.378E-11
  5544.000   2.305E-11
  5546.000   2.235E-11
  5548.000   2.168E-11
  5550.000   2.105E-11
  5552.000   2.046E-11
  5554.000   1.992E-11
  5556.000   1.941E-11
  5558.000   1.891E-11
  5560.000   1.841E-11
  5562.000   1.791E-11
  5564.000   1.742E-11
  5566.000   1.694E-11
  5568.000   1.648E-11
  5570.000   1.604E-11
  5572.000   1.563E-11
  5574.000   1.524E-11
  5576.000   1.487E-11
  5578.000   1.451E-11
  5580.000   1.415E-11
  5582.000   1.378E-11
  5584.000   1.343E-11
  5586.000   1.308E-11
  5588.000   1.274E-11
  5590.000   1.242E-11
  5592.000   1.211E-11
  5594.000   1.183E-11
  5596.000   1.155E-11
  5598.000   1.129E-11
  5600.000   1.103E-11
  5602.000   1.077E-11
  5604.000   1.052E-11
  5606.000   1.028E-11
  5608.000   1.005E-11
  5610.000   9.817E-12
  5612.000   9.596E-12
  5614.000   9.383E-12
  5616.000   9.176E-12
  5618.000   8.976E-12
  5620.000   8.781E-12
  5622.000   8.594E-12
  5624.000   8.413E-12
  5626.000   8.238E-12
  5628.000   8.067E-12
  5630.000   7.898E-12
  5632.000   7.730E-12
  5634.000   7.566E-12
  5636.000   7.405E-12
  5638.000   7.248E-12
  5640.000   7.094E-12
  5642.000   6.945E-12
  5644.000   6.799E-12
  5646.000   6.656E-12
  5648.000   6.518E-12
  5650.000   6.382E-12
  5652.000   6.249E-12
  5654.000   6.120E-12
  5656.000   5.994E-12
  5658.000   5.872E-12
  5660.000   5.754E-12
  5662.000   5.642E-12
  5664.000   5.534E-12
  5666.000   5.430E-12
  5668.000   5.328E-12
  5670.000   5.228E-12
  5672.000   5.130E-12
  5674.000   5.034E-12
  5676.000   4.940E-12
  5678.000   4.848E-12
  5680.000   4.758E-12
  5682.000   4.670E-12
  5684.000   4.583E-12
  5686.000   4.498E-12
  5688.000   4.415E-12
  5690.000   4.335E-12
  5692.000   4.258E-12
  5694.000   4.183E-12
  5696.000   4.111E-12
  5698.000   4.040E-12
  5700.000   3.971E-12
  5702.000   3.903E-12
  5704.000   3.837E-12
  5706.000   3.772E-12
  5708.000   3.709E-12
  5710.000   3.647E-12
  5712.000   3.586E-12
  5714.000   3.526E-12
  5716.000   3.467E-12
  5718.000   3.410E-12
  5720.000   3.354E-12
  5722.000   3.301E-12
  5724.000   3.249E-12
  5726.000   3.199E-12
  5728.000   3.150E-12
  5730.000   3.102E-12
  5732.000   3.055E-12
  5734.000   3.010E-12
  5736.000   2.965E-12
  5738.000   2.921E-12
  5740.000   2.879E-12
  5742.000   2.839E-12
  5744.000   2.800E-12
  5746.000   2.762E-12
  5748.000   2.725E-12
  5750.000   2.688E-12
  5752.000   2.651E-12
  5754.000   2.614E-12
  5756.000   2.578E-12
  5758.000   2.543E-12
  5760.000   2.508E-12
  5762.000   2.476E-12
  5764.000   2.444E-12
  5766.000   2.412E-12
  5768.000   2.382E-12
  5770.000   2.353E-12
  5772.000   2.324E-12
  5774.000   2.297E-12
  5776.000   2.270E-12
  5778.000   2.244E-12
  5780.000   2.218E-12
  5782.000   2.193E-12
  5784.000   2.168E-12
  5786.000   2.143E-12
  5788.000   2.120E-12
  5790.000   2.097E-12
  5792.000   2.075E-12
  5794.000   2.054E-12
  5796.000   2.033E-12
  5798.000   2.013E-12
  5800.000   1.993E-12
  5802.000   1.973E-12
  5804.000   1.954E-12
  5806.000   1.936E-12
  5808.000   1.918E-12
  5810.000   1.900E-12
  5812.000   1.883E-12
  5814.000   1.865E-12
  5816.000   1.849E-12
  5818.000   1.833E-12
  5820.000   1.817E-12
  5822.000   1.801E-12
  5824.000   1.787E-12
  5826.000   1.772E-12
  5828.000   1.758E-12
  5830.000   1.745E-12
  5832.000   1.731E-12
  5834.000   1.718E-12
  5836.000   1.706E-12
  5838.000   1.693E-12
  5840.000   1.681E-12
  5842.000   1.669E-12
  5844.000   1.658E-12
  5846.000   1.646E-12
  5848.000   1.635E-12
  5850.000   1.624E-12
  5852.000   1.613E-12
  5854.000   1.603E-12
  5856.000   1.594E-12
  5858.000   1.584E-12
  5860.000   1.576E-12
  5862.000   1.567E-12
  5864.000   1.559E-12
  5866.000   1.551E-12
  5868.000   1.544E-12
  5870.000   1.537E-12
  5872.000   1.531E-12
  5874.000   1.526E-12
  5876.000   1.521E-12
  5878.000   1.516E-12
  5880.000   1.512E-12
  5882.000   1.507E-12
  5884.000   1.503E-12
  5886.000   1.499E-12
  5888.000   1.496E-12
  5890.000   1.492E-12
  5892.000   1.488E-12
  5894.000   1.485E-12
  5896.000   1.482E-12
  5898.000   1.479E-12
  5900.000   1.476E-12
  5902.000   1.473E-12
  5904.000   1.469E-12
  5906.000   1.466E-12
  5908.000   1.463E-12
  5910.000   1.460E-12
  5912.000   1.457E-12
  5914.000   1.454E-12
  5916.000   1.452E-12
  5918.000   1.449E-12
  5920.000   1.446E-12
  5922.000   1.444E-12
  5924.000   1.441E-12
  5926.000   1.439E-12
  5928.000   1.436E-12
  5930.000   1.434E-12
  5932.000   1.432E-12
  5934.000   1.430E-12
  5936.000   1.428E-12
  5938.000   1.426E-12
  5940.000   1.424E-12
  5942.000   1.422E-12
  5944.000   1.420E-12
  5946.000   1.418E-12
  5948.000   1.417E-12
  5950.000   1.415E-12
  5952.000   1.413E-12
  5954.000   1.412E-12
  5956.000   1.410E-12
  5958.000   1.409E-12
  5960.000   1.408E-12
  5962.000   1.406E-12
  5964.000   1.405E-12
  5966.000   1.404E-12
  5968.000   1.403E-12
  5970.000   1.402E-12
  5972.000   1.401E-12
  5974.000   1.399E-12
  5976.000   1.398E-12
  5978.000   1.398E-12
  5980.000   1.397E-12
  5982.000   1.396E-12
  5984.000   1.395E-12
  5986.000   1.394E-12
  5988.000   1.394E-12
  5990.000   1.393E-12
  5992.000   1.392E-12
  5994.000   1.392E-12
  5996.000   1.391E-12
  5998.000   1.391E-12
  6000.000   1.390E-12
  6002.000   1.390E-12
  6004.000   1.389E-12
  6006.000   1.389E-12
  6008.000   1.389E-12
  6010.000   1.389E-12
  6012.000   1.388E-12
  6014.000   1.388E-12
  6016.000   1.388E-12
  6018.000   1.388E-12
  6020.000   1.388E-12
  6022.000   1.388E-12
  6024.000   1.388E-12
  6026.000   1.388E-12
  6028.000   1.388E-12
  6030.000   1.388E-12
  6032.000   1.388E-12
  6034.000   1.388E-12
  6036.000   1.388E-12
  6038.000   1.388E-12
  6040.000   1.388E-12
  6042.000   1.388E-12
  6044.000   1.389E-12
  6046.000   1.389E-12
  6048.000   1.389E-12
  6050.000   1.389E-12
  6052.000   1.390E-12
  6054.000   1.390E-12
  6056.000   1.390E-12
  6058.000   1.391E-12
  6060.000   1.391E-12
  6062.000   1.392E-12
  6064.000   1.392E-12
  6066.000   1.392E-12
  6068.000   1.393E-12
  6070.000   1.393E-12
  6072.000   1.394E-12
  6074.000   1.394E-12
  6076.000   1.395E-12
  6078.000   1.396E-12
  6080.000   1.396E-12
  6082.000   1.397E-12
  6084.000   1.397E-12
  6086.000   1.398E-12
  6088.000   1.398E-12
  6090.000   1.399E-12
  6092.000   1.400E-12
  6094.000   1.400E-12
  6096.000   1.401E-12
  6098.000   1.402E-12
  6100.000   1.402E-12
  6102.000   1.403E-12
  6104.000   1.404E-12
  6106.000   1.404E-12
  6108.000   1.405E-12
  6110.000   1.406E-12
  6112.000   1.407E-12
  6114.000   1.407E-12
  6116.000   1.408E-12
  6118.000   1.409E-12
  6120.000   1.410E-12
  6122.000   1.411E-12
  6124.000   1.412E-12
  6126.000   1.412E-12
  6128.000   1.413E-12
  6130.000   1.414E-12
  6132.000   1.415E-12
  6134.000   1.416E-12
  6136.000   1.417E-12
  6138.000   1.418E-12
  6140.000   1.419E-12
  6142.000   1.420E-12
  6144.000   1.421E-12
  6146.000   1.422E-12
  6148.000   1.423E-12
  6150.000   1.424E-12
  6152.000   1.425E-12
  6154.000   1.426E-12
  6156.000   1.427E-12
  6158.000   1.429E-12
  6160.000   1.430E-12
  6162.000   1.431E-12
  6164.000   1.432E-12
  6166.000   1.433E-12
  6168.000   1.435E-12
  6170.000   1.436E-12
  6172.000   1.437E-12
  6174.000   1.438E-12
  6176.000   1.440E-12
  6178.000   1.441E-12
  6180.000   1.442E-12
  6182.000   1.443E-12
  6184.000   1.445E-12
  6186.000   1.446E-12
  6188.000   1.447E-12
  6190.000   1.449E-12
  6192.000   1.450E-12
  6194.000   1.451E-12
  6196.000   1.453E-12
  6198.000   1.454E-12
  6200.000   1.456E-12
  6202.000   1.457E-12
  6204.000   1.458E-12
  6206.000   1.460E-12
  6208.000   1.461E-12
  6210.000   1.463E-12
  6212.000   1.464E-12
  6214.000   1.466E-12
  6216.000   1.467E-12
  6218.000   1.468E-12
  6220.000   1.470E-12
  6222.000   1.471E-12
  6224.000   1.473E-12
  6226.000   1.474E-12
  6228.000   1.476E-12
  6230.000   1.477E-12
  6232.000   1.479E-12
  6234.000   1.481E-12
  6236.000   1.482E-12
  6238.000   1.484E-12
  6240.000   1.485E-12
  6242.000   1.487E-12
  6244.000   1.488E-12
  6246.000   1.490E-12
  6248.000   1.491E-12
  6250.000   1.493E-12
  6252.000   1.495E-12
  6254.000   1.496E-12
  6256.000   1.498E-12
  6258.000   1.499E-12
  6260.000   1.501E-12
  6262.000   1.503E-12
  6264.000   1.504E-12
  6266.000   1.506E-12
  6268.000   1.508E-12
  6270.000   1.509E-12
  6272.000   1.511E-12
  6274.000   1.513E-12
  6276.000   1.515E-12
  6278.000   1.516E-12
  6280.000   1.518E-12
  6282.000   1.520E-12
  6284.000   1.521E-12
  6286.000   1.523E-12
  6288.000   1.525E-12
  6290.000   1.527E-12
  6292.000   1.528E-12
  6294.000   1.530E-12
  6296.000   1.532E-12
  6298.000   1.534E-12
  6300.000   1.536E-12
  6302.000   1.537E-12
  6304.000   1.539E-12
  6306.000   1.541E-12
  6308.000   1.543E-12
  6310.000   1.545E-12
  6312.000   1.547E-12
  6314.000   1.548E-12
  6316.000   1.550E-12
  6318.000   1.552E-12
  6320.000   1.554E-12
  6322.000   1.556E-12
  6324.000   1.558E-12
  6326.000   1.560E-12
  6328.000   1.562E-12
  6330.000   1.564E-12
  6332.000   1.566E-12
  6334.000   1.568E-12
  6336.000   1.569E-12
  6338.000   1.571E-12
  6340.000   1.573E-12
  6342.000   1.575E-12
  6344.000   1.577E-12
  6346.000   1.579E-12
  6348.000   1.581E-12
  6350.000   1.584E-12
  6352.000   1.586E-12
  6354.000   1.588E-12
  6356.000   1.590E-12
  6358.000   1.592E-12
  6360.000   1.594E-12
  6362.000   1.596E-12
  6364.000   1.598E-12
  6366.000   1.600E-12
  6368.000   1.602E-12
  6370.000   1.604E-12
  6372.000   1.606E-12
  6374.000   1.608E-12
  6376.000   1.611E-12
  6378.000   1.613E-12
  6380.000   1.615E-12
  6382.000   1.617E-12
  6384.000   1.619E-12
  6386.000   1.621E-12
  6388.000   1.624E-12
  6390.000   1.626E-12
  6392.000   1.628E-12
  6394.000   1.630E-12
  6396.000   1.633E-12
  6398.000   1.635E-12
  6400.000   1.637E-12
  6402.000   1.640E-12
  6404.000   1.642E-12
  6406.000   1.644E-12
  6408.000   1.647E-12
  6410.000   1.649E-12
  6412.000   1.651E-12
  6414.000   1.654E-12
  6416.000   1.656E-12
  6418.000   1.659E-12
  6420.000   1.661E-12
  6422.000   1.663E-12
  6424.000   1.666E-12
  6426.000   1.668E-12
  6428.000   1.671E-12
  6430.000   1.673E-12
  6432.000   1.676E-12
  6434.000   1.678E-12
  6436.000   1.681E-12
  6438.000   1.684E-12
  6440.000   1.686E-12
  6442.000   1.689E-12
  6444.000   1.691E-12
  6446.000   1.694E-12
  6448.000   1.697E-12
  6450.000   1.700E-12
  6452.000   1.702E-12
  6454.000   1.705E-12
  6456.000   1.708E-12
  6458.000   1.710E-12
  6460.000   1.713E-12
  6462.000   1.716E-12
  6464.000   1.719E-12
  6466.000   1.722E-12
  6468.000   1.725E-12
  6470.000   1.728E-12
  6472.000   1.731E-12
  6474.000   1.733E-12
  6476.000   1.736E-12
  6478.000   1.739E-12
  6480.000   1.743E-12
  6482.000   1.746E-12
  6484.000   1.749E-12
  6486.000   1.752E-12
  6488.000   1.755E-12
  6490.000   1.758E-12
  6492.000   1.761E-12
  6494.000   1.765E-12
  6496.000   1.768E-12
  6498.000   1.771E-12
  6500.000   1.775E-12
  6502.000   1.778E-12
  6504.000   1.781E-12
  6506.000   1.785E-12
  6508.000   1.788E-12
  6510.000   1.792E-12
  6512.000   1.796E-12
  6514.000   1.799E-12
  6516.000   1.803E-12
  6518.000   1.807E-12
  6520.000   1.811E-12
  6522.000   1.815E-12
  6524.000   1.818E-12
  6526.000   1.822E-12
  6528.000   1.826E-12
  6530.000   1.830E-12
  6532.000   1.834E-12
  6534.000   1.839E-12
  6536.000   1.843E-12
  6538.000   1.847E-12
  6540.000   1.852E-12
  6542.000   1.856E-12
  6544.000   1.861E-12
  6546.000   1.866E-12
  6548.000   1.871E-12
  6550.000   1.876E-12
  6552.000   1.881E-12
  6554.000   1.886E-12
  6556.000   1.891E-12
  6558.000   1.897E-12
  6560.000   1.902E-12
  6562.000   1.907E-12
  6564.000   1.913E-12
  6566.000   1.918E-12
  6568.000   1.924E-12
  6570.000   1.930E-12
  6572.000   1.936E-12
  6574.000   1.942E-12
  6576.000   1.948E-12
  6578.000   1.955E-12
  6580.000   1.961E-12
  6582.000   1.968E-12
  6584.000   1.976E-12
  6586.000   1.983E-12
  6588.000   1.991E-12
  6590.000   1.998E-12
  6592.000   2.006E-12
  6594.000   2.014E-12
  6596.000   2.022E-12
  6598.000   2.031E-12
  6600.000   2.039E-12
  6602.000   2.048E-12
  6604.000   2.058E-12
  6606.000   2.068E-12
  6608.000   2.078E-12
  6610.000   2.088E-12
  6612.000   2.098E-12
  6614.000   2.108E-12
  6616.000   2.119E-12
  6618.000   2.130E-12
  6620.000   2.141E-12
  6622.000   2.153E-12
  6624.000   2.166E-12
  6626.000   2.179E-12
  6628.000   2.192E-12
  6630.000   2.205E-12
  6632.000   2.217E-12
  6634.000   2.229E-12
  6636.000   2.241E-12
  6638.000   2.254E-12
  6640.000   2.269E-12
  6642.000   2.285E-12
  6644.000   2.302E-12
  6646.000   2.320E-12
  6648.000   2.339E-12
  6650.000   2.357E-12
  6652.000   2.376E-12
  6654.000   2.394E-12
  6656.000   2.413E-12
  6658.000   2.432E-12
  6660.000   2.453E-12
  6662.000   2.474E-12
  6664.000   2.495E-12
  6666.000   2.518E-12
  6668.000   2.542E-12
  6670.000   2.567E-12
  6672.000   2.594E-12
  6674.000   2.622E-12
  6676.000   2.652E-12
  6678.000   2.683E-12
  6680.000   2.717E-12
  6682.000   2.753E-12
  6684.000   2.790E-12
  6686.000   2.830E-12
  6688.000   2.872E-12
  6690.000   2.915E-12
  6692.000   2.959E-12
  6694.000   3.005E-12
  6696.000   3.052E-12
  6698.000   3.103E-12
  6700.000   3.156E-12
  6702.000   3.212E-12
  6704.000   3.271E-12
  6706.000   3.333E-12
  6708.000   3.397E-12
  6710.000   3.464E-12
  6712.000   3.532E-12
  6714.000   3.602E-12
  6716.000   3.675E-12
  6718.000   3.753E-12
  6720.000   3.836E-12
  6722.000   3.926E-12
  6724.000   4.024E-12
  6726.000   4.125E-12
  6728.000   4.228E-12
  6730.000   4.330E-12
  6732.000   4.430E-12
  6734.000   4.529E-12
  6736.000   4.629E-12
  6738.000   4.734E-12
  6740.000   4.845E-12
  6742.000   4.963E-12
  6744.000   5.087E-12
  6746.000   5.215E-12
  6748.000   5.345E-12
  6750.000   5.475E-12
  6752.000   5.601E-12
  6754.000   5.727E-12
  6756.000   5.854E-12
  6758.000   5.987E-12
  6760.000   6.128E-12
  6762.000   6.279E-12
  6764.000   6.438E-12
  6766.000   6.603E-12
  6768.000   6.772E-12
  6770.000   6.944E-12
  6772.000   7.124E-12
  6774.000   7.313E-12
  6776.000   7.503E-12
  6778.000   7.688E-12
  6780.000   7.859E-12
  6782.000   8.015E-12
  6784.000   8.160E-12
  6786.000   8.297E-12
  6788.000   8.432E-12
  6790.000   8.566E-12
  6792.000   8.706E-12
  6794.000   8.848E-12
  6796.000   8.986E-12
  6798.000   9.113E-12
  6800.000   9.223E-12
  6802.000   9.311E-12
  6804.000   9.381E-12
  6806.000   9.440E-12
  6808.000   9.498E-12
  6810.000   9.561E-12
  6812.000   9.633E-12
  6814.000   9.708E-12
  6816.000   9.782E-12
  6818.000   9.850E-12
  6820.000   9.908E-12
  6822.000   9.951E-12
  6824.000   9.982E-12
  6826.000   1.001E-11
  6828.000   1.003E-11
  6830.000   1.007E-11
  6832.000   1.011E-11
  6834.000   1.014E-11
  6836.000   1.019E-11
  6838.000   1.023E-11
  6840.000   1.028E-11
  6842.000   1.035E-11
  6844.000   1.041E-11
  6846.000   1.048E-11
  6848.000   1.056E-11
  6850.000   1.063E-11
  6852.000   1.070E-11
  6854.000   1.077E-11
  6856.000   1.084E-11
  6858.000   1.092E-11
  6860.000   1.099E-11
  6862.000   1.107E-11
  6864.000   1.114E-11
  6866.000   1.122E-11
  6868.000   1.131E-11
  6870.000   1.140E-11
  6872.000   1.151E-11
  6874.000   1.162E-11
  6876.000   1.175E-11
  6878.000   1.187E-11
  6880.000   1.199E-11
  6882.000   1.210E-11
  6884.000   1.221E-11
  6886.000   1.232E-11
  6888.000   1.243E-11
  6890.000   1.255E-11
  6892.000   1.268E-11
  6894.000   1.282E-11
  6896.000   1.296E-11
  6898.000   1.310E-11
  6900.000   1.322E-11
  6902.000   1.331E-11
  6904.000   1.339E-11
  6906.000   1.346E-11
  6908.000   1.354E-11
  6910.000   1.362E-11
  6912.000   1.373E-11
  6914.000   1.385E-11
  6916.000   1.397E-11
  6918.000   1.408E-11
  6920.000   1.416E-11
  6922.000   1.420E-11
  6924.000   1.420E-11
  6926.000   1.419E-11
  6928.000   1.418E-11
  6930.000   1.420E-11
  6932.000   1.426E-11
  6934.000   1.434E-11
  6936.000   1.442E-11
  6938.000   1.450E-11
  6940.000   1.454E-11
  6942.000   1.456E-11
  6944.000   1.456E-11
  6946.000   1.454E-11
  6948.000   1.452E-11
  6950.000   1.452E-11
  6952.000   1.453E-11
  6954.000   1.454E-11
  6956.000   1.456E-11
  6958.000   1.457E-11
  6960.000   1.456E-11
  6962.000   1.453E-11
  6964.000   1.448E-11
  6966.000   1.442E-11
  6968.000   1.436E-11
  6970.000   1.432E-11
  6972.000   1.429E-11
  6974.000   1.426E-11
  6976.000   1.425E-11
  6978.000   1.425E-11
  6980.000   1.426E-11
  6982.000   1.429E-11
  6984.000   1.433E-11
  6986.000   1.439E-11
  6988.000   1.445E-11
  6990.000   1.450E-11
  6992.000   1.453E-11
  6994.000   1.456E-11
  6996.000   1.460E-11
  6998.000   1.464E-11
  7000.000   1.470E-11
  7002.000   1.477E-11
  7004.000   1.486E-11
  7006.000   1.496E-11
  7008.000   1.507E-11
  7010.000   1.520E-11
  7012.000   1.534E-11
  7014.000   1.549E-11
  7016.000   1.565E-11
  7018.000   1.584E-11
  7020.000   1.605E-11
  7022.000   1.630E-11
  7024.000   1.657E-11
  7026.000   1.686E-11
  7028.000   1.717E-11
  7030.000   1.749E-11
  7032.000   1.781E-11
  7034.000   1.813E-11
  7036.000   1.846E-11
  7038.000   1.883E-11
  7040.000   1.926E-11
  7042.000   1.975E-11
  7044.000   2.030E-11
  7046.000   2.088E-11
  7048.000   2.148E-11
  7050.000   2.206E-11
  7052.000   2.263E-11
  7054.000   2.319E-11
  7056.000   2.377E-11
  7058.000   2.438E-11
  7060.000   2.505E-11
  7062.000   2.578E-11
  7064.000   2.655E-11
  7066.000   2.737E-11
  7068.000   2.822E-11
  7070.000   2.912E-11
  7072.000   3.005E-11
  7074.000   3.102E-11
  7076.000   3.203E-11
  7078.000   3.309E-11
  7080.000   3.421E-11
  7082.000   3.540E-11
  7084.000   3.665E-11
  7086.000   3.795E-11
  7088.000   3.929E-11
  7090.000   4.064E-11
  7092.000   4.200E-11
  7094.000   4.339E-11
  7096.000   4.480E-11
  7098.000   4.625E-11
  7100.000   4.775E-11
  7102.000   4.929E-11
  7104.000   5.085E-11
  7106.000   5.246E-11
  7108.000   5.414E-11
  7110.000   5.591E-11
  7112.000   5.783E-11
  7114.000   5.989E-11
  7116.000   6.199E-11
  7118.000   6.405E-11
  7120.000   6.596E-11
  7122.000   6.764E-11
  7124.000   6.915E-11
  7126.000   7.062E-11
  7128.000   7.220E-11
  7130.000   7.400E-11
  7132.000   7.616E-11
  7134.000   7.860E-11
  7136.000   8.111E-11
  7138.000   8.350E-11
  7140.000   8.558E-11
  7142.000   8.729E-11
  7144.000   8.876E-11
  7146.000   9.008E-11
  7148.000   9.131E-11
  7150.000   9.254E-11
  7152.000   9.371E-11
  7154.000   9.475E-11
  7156.000   9.578E-11
  7158.000   9.689E-11
  7160.000   9.818E-11
  7162.000   9.982E-11
  7164.000   1.017E-10
  7166.000   1.037E-10
  7168.000   1.054E-10
  7170.000   1.068E-10
  7172.000   1.076E-10
  7174.000   1.080E-10
  7176.000   1.082E-10
  7178.000   1.085E-10
  7180.000   1.091E-10
  7182.000   1.102E-10
  7184.000   1.115E-10
  7186.000   1.130E-10
  7188.000   1.144E-10
  7190.000   1.156E-10
  7192.000   1.165E-10
  7194.000   1.171E-10
  7196.000   1.177E-10
  7198.000   1.183E-10
  7200.000   1.190E-10
  7202.000   1.200E-10
  7204.000   1.210E-10
  7206.000   1.220E-10
  7208.000   1.231E-10
  7210.000   1.242E-10
  7212.000   1.253E-10
  7214.000   1.266E-10
  7216.000   1.278E-10
  7218.000   1.288E-10
  7220.000   1.296E-10
  7222.000   1.301E-10
  7224.000   1.303E-10
  7226.000   1.303E-10
  7228.000   1.304E-10
  7230.000   1.307E-10
  7232.000   1.313E-10
  7234.000   1.319E-10
  7236.000   1.326E-10
  7238.000   1.333E-10
  7240.000   1.341E-10
  7242.000   1.349E-10
  7244.000   1.357E-10
  7246.000   1.366E-10
  7248.000   1.373E-10
  7250.000   1.379E-10
  7252.000   1.383E-10
  7254.000   1.386E-10
  7256.000   1.387E-10
  7258.000   1.389E-10
  7260.000   1.392E-10
  7262.000   1.397E-10
  7264.000   1.402E-10
  7266.000   1.408E-10
  7268.000   1.414E-10
  7270.000   1.420E-10
  7272.000   1.425E-10
  7274.000   1.431E-10
  7276.000   1.436E-10
  7278.000   1.442E-10
  7280.000   1.448E-10
  7282.000   1.455E-10
  7284.000   1.461E-10
  7286.000   1.467E-10
  7288.000   1.475E-10
  7290.000   1.483E-10
  7292.000   1.494E-10
  7294.000   1.508E-10
  7296.000   1.521E-10
  7298.000   1.533E-10
  7300.000   1.539E-10
  7302.000   1.541E-10
  7304.000   1.539E-10
  7306.000   1.534E-10
  7308.000   1.528E-10
  7310.000   1.522E-10
  7312.000   1.517E-10
  7314.000   1.512E-10
  7316.000   1.505E-10
  7318.000   1.498E-10
  7320.000   1.487E-10
  7322.000   1.474E-10
  7324.000   1.458E-10
  7326.000   1.441E-10
  7328.000   1.421E-10
  7330.000   1.398E-10
  7332.000   1.372E-10
  7334.000   1.343E-10
  7336.000   1.311E-10
  7338.000   1.279E-10
  7340.000   1.249E-10
  7342.000   1.220E-10
  7344.000   1.193E-10
  7346.000   1.165E-10
  7348.000   1.136E-10
  7350.000   1.105E-10
  7352.000   1.070E-10
  7354.000   1.033E-10
  7356.000   9.948E-11
  7358.000   9.568E-11
  7360.000   9.209E-11
  7362.000   8.873E-11
  7364.000   8.551E-11
  7366.000   8.237E-11
  7368.000   7.923E-11
  7370.000   7.602E-11
  7372.000   7.269E-11
  7374.000   6.928E-11
  7376.000   6.587E-11
  7378.000   6.257E-11
  7380.000   5.946E-11
  7382.000   5.654E-11
  7384.000   5.375E-11
  7386.000   5.109E-11
  7388.000   4.858E-11
  7390.000   4.623E-11
  7392.000   4.409E-11
  7394.000   4.214E-11
  7396.000   4.032E-11
  7398.000   3.857E-11
  7400.000   3.682E-11
  7402.000   3.506E-11
  7404.000   3.333E-11
  7406.000   3.165E-11
  7408.000   3.004E-11
  7410.000   2.855E-11
  7412.000   2.716E-11
  7414.000   2.587E-11
  7416.000   2.466E-11
  7418.000   2.352E-11
  7420.000   2.244E-11
  7422.000   2.141E-11
  7424.000   2.046E-11
  7426.000   1.957E-11
  7428.000   1.873E-11
  7430.000   1.793E-11
  7432.000   1.718E-11
  7434.000   1.648E-11
  7436.000   1.583E-11
  7438.000   1.521E-11
  7440.000   1.462E-11
  7442.000   1.407E-11
  7444.000   1.355E-11
  7446.000   1.307E-11
  7448.000   1.262E-11
  7450.000   1.218E-11
  7452.000   1.178E-11
  7454.000   1.141E-11
  7456.000   1.106E-11
  7458.000   1.073E-11
  7460.000   1.041E-11
  7462.000   1.011E-11
  7464.000   9.835E-12
  7466.000   9.574E-12
  7468.000   9.327E-12
  7470.000   9.091E-12
  7472.000   8.869E-12
  7474.000   8.662E-12
  7476.000   8.467E-12
  7478.000   8.282E-12
  7480.000   8.105E-12
  7482.000   7.936E-12
  7484.000   7.778E-12
  7486.000   7.628E-12
  7488.000   7.485E-12
  7490.000   7.348E-12
  7492.000   7.219E-12
  7494.000   7.098E-12
  7496.000   6.984E-12
  7498.000   6.874E-12
  7500.000   6.766E-12
  7502.000   6.661E-12
  7504.000   6.560E-12
  7506.000   6.463E-12
  7508.000   6.370E-12
  7510.000   6.282E-12
  7512.000   6.198E-12
  7514.000   6.119E-12
  7516.000   6.044E-12
  7518.000   5.972E-12
  7520.000   5.903E-12
  7522.000   5.837E-12
  7524.000   5.776E-12
  7526.000   5.717E-12
  7528.000   5.661E-12
  7530.000   5.605E-12
  7532.000   5.550E-12
  7534.000   5.497E-12
  7536.000   5.446E-12
  7538.000   5.396E-12
  7540.000   5.348E-12
  7542.000   5.301E-12
  7544.000   5.255E-12
  7546.000   5.212E-12
  7548.000   5.170E-12
  7550.000   5.129E-12
  7552.000   5.091E-12
  7554.000   5.054E-12
  7556.000   5.018E-12
  7558.000   4.984E-12
  7560.000   4.950E-12
  7562.000   4.917E-12
  7564.000   4.884E-12
  7566.000   4.853E-12
  7568.000   4.822E-12
  7570.000   4.792E-12
  7572.000   4.764E-12
  7574.000   4.737E-12
  7576.000   4.711E-12
  7578.000   4.686E-12
  7580.000   4.660E-12
  7582.000   4.635E-12
  7584.000   4.610E-12
  7586.000   4.585E-12
  7588.000   4.561E-12
  7590.000   4.538E-12
  7592.000   4.515E-12
  7594.000   4.492E-12
  7596.000   4.471E-12
  7598.000   4.449E-12
  7600.000   4.428E-12
  7602.000   4.408E-12
  7604.000   4.387E-12
  7606.000   4.368E-12
  7608.000   4.349E-12
  7610.000   4.330E-12
  7612.000   4.312E-12
  7614.000   4.294E-12
  7616.000   4.277E-12
  7618.000   4.260E-12
  7620.000   4.244E-12
  7622.000   4.228E-12
  7624.000   4.212E-12
  7626.000   4.196E-12
  7628.000   4.181E-12
  7630.000   4.166E-12
  7632.000   4.152E-12
  7634.000   4.139E-12
  7636.000   4.126E-12
  7638.000   4.114E-12
  7640.000   4.101E-12
  7642.000   4.088E-12
  7644.000   4.076E-12
  7646.000   4.063E-12
  7648.000   4.051E-12
  7650.000   4.040E-12
  7652.000   4.029E-12
  7654.000   4.019E-12
  7656.000   4.009E-12
  7658.000   3.999E-12
  7660.000   3.990E-12
  7662.000   3.980E-12
  7664.000   3.971E-12
  7666.000   3.961E-12
  7668.000   3.952E-12
  7670.000   3.944E-12
  7672.000   3.935E-12
  7674.000   3.927E-12
  7676.000   3.919E-12
  7678.000   3.912E-12
  7680.000   3.905E-12
  7682.000   3.898E-12
  7684.000   3.892E-12
  7686.000   3.886E-12
  7688.000   3.880E-12
  7690.000   3.874E-12
  7692.000   3.868E-12
  7694.000   3.861E-12
  7696.000   3.855E-12
  7698.000   3.849E-12
  7700.000   3.844E-12
  7702.000   3.838E-12
  7704.000   3.834E-12
  7706.000   3.829E-12
  7708.000   3.825E-12
  7710.000   3.821E-12
  7712.000   3.817E-12
  7714.000   3.813E-12
  7716.000   3.809E-12
  7718.000   3.805E-12
  7720.000   3.802E-12
  7722.000   3.799E-12
  7724.000   3.796E-12
  7726.000   3.793E-12
  7728.000   3.790E-12
  7730.000   3.787E-12
  7732.000   3.784E-12
  7734.000   3.782E-12
  7736.000   3.780E-12
  7738.000   3.777E-12
  7740.000   3.775E-12
  7742.000   3.773E-12
  7744.000   3.772E-12
  7746.000   3.770E-12
  7748.000   3.768E-12
  7750.000   3.767E-12
  7752.000   3.766E-12
  7754.000   3.765E-12
  7756.000   3.764E-12
  7758.000   3.763E-12
  7760.000   3.762E-12
  7762.000   3.761E-12
  7764.000   3.761E-12
  7766.000   3.760E-12
  7768.000   3.760E-12
  7770.000   3.759E-12
  7772.000   3.759E-12
  7774.000   3.759E-12
  7776.000   3.759E-12
  7778.000   3.759E-12
  7780.000   3.760E-12
  7782.000   3.760E-12
  7784.000   3.760E-12
  7786.000   3.761E-12
  7788.000   3.762E-12
  7790.000   3.763E-12
  7792.000   3.764E-12
  7794.000   3.764E-12
  7796.000   3.765E-12
  7798.000   3.766E-12
  7800.000   3.768E-12
  7802.000   3.769E-12
  7804.000   3.771E-12
  7806.000   3.773E-12
  7808.000   3.774E-12
  7810.000   3.776E-12
  7812.000   3.778E-12
  7814.000   3.780E-12
  7816.000   3.783E-12
  7818.000   3.785E-12
  7820.000   3.788E-12
  7822.000   3.790E-12
  7824.000   3.793E-12
  7826.000   3.796E-12
  7828.000   3.798E-12
  7830.000   3.802E-12
  7832.000   3.805E-12
  7834.000   3.808E-12
  7836.000   3.811E-12
  7838.000   3.815E-12
  7840.000   3.819E-12
  7842.000   3.822E-12
  7844.000   3.825E-12
  7846.000   3.829E-12
  7848.000   3.833E-12
  7850.000   3.837E-12
  7852.000   3.842E-12
  7854.000   3.846E-12
  7856.000   3.850E-12
  7858.000   3.854E-12
  7860.000   3.860E-12
  7862.000   3.864E-12
  7864.000   3.870E-12
  7866.000   3.877E-12
  7868.000   3.882E-12
  7870.000   3.886E-12
  7872.000   3.891E-12
  7874.000   3.896E-12
  7876.000   3.900E-12
  7878.000   3.906E-12
  7880.000   3.913E-12
  7882.000   3.913E-12
  7884.000   3.916E-12
  7886.000   3.923E-12
  7888.000   3.927E-12
  7890.000   3.929E-12
  7892.000   3.931E-12
  7894.000   3.932E-12
  7896.000   3.935E-12
  7898.000   3.937E-12
  7900.000   3.938E-12
  7902.000   3.940E-12
  7904.000   3.941E-12
  7906.000   3.942E-12
  7908.000   3.944E-12
  7910.000   3.943E-12
  7912.000   3.945E-12
  7914.000   3.947E-12
  7916.000   3.947E-12
  7918.000   3.947E-12
  7920.000   3.946E-12
  7922.000   3.946E-12
  7924.000   3.946E-12
  7926.000   3.947E-12
  7928.000   3.947E-12
  7930.000   3.947E-12
  7932.000   3.947E-12
  7934.000   3.947E-12
  7936.000   3.947E-12
  7938.000   3.948E-12
  7940.000   3.948E-12
  7942.000   3.947E-12
  7944.000   3.949E-12
  7946.000   3.949E-12
  7948.000   3.950E-12
  7950.000   3.951E-12
  7952.000   3.951E-12
  7954.000   3.953E-12
  7956.000   3.954E-12
  7958.000   3.955E-12
  7960.000   3.956E-12
  7962.000   3.958E-12
  7964.000   3.959E-12
  7966.000   3.961E-12
  7968.000   3.963E-12
  7970.000   3.964E-12
  7972.000   3.966E-12
  7974.000   3.968E-12
  7976.000   3.970E-12
  7978.000   3.972E-12
  7980.000   3.974E-12
  7982.000   3.976E-12
  7984.000   3.978E-12
  7986.000   3.980E-12
  7988.000   3.983E-12
  7990.000   3.985E-12
  7992.000   3.987E-12
  7994.000   3.989E-12
  7996.000   3.992E-12
  7998.000   3.994E-12
  8000.000   3.997E-12
  8002.000   4.000E-12
  8004.000   4.002E-12
  8006.000   4.005E-12
  8008.000   4.007E-12
  8010.000   4.010E-12
  8012.000   4.013E-12
  8014.000   4.016E-12
  8016.000   4.019E-12
  8018.000   4.021E-12
  8020.000   4.024E-12
  8022.000   4.027E-12
  8024.000   4.030E-12
  8026.000   4.033E-12
  8028.000   4.036E-12
  8030.000   4.039E-12
  8032.000   4.042E-12
  8034.000   4.045E-12
  8036.000   4.049E-12
  8038.000   4.052E-12
  8040.000   4.055E-12
  8042.000   4.058E-12
  8044.000   4.062E-12
  8046.000   4.065E-12
  8048.000   4.068E-12
  8050.000   4.071E-12
  8052.000   4.075E-12
  8054.000   4.078E-12
  8056.000   4.081E-12
  8058.000   4.085E-12
  8060.000   4.088E-12
  8062.000   4.092E-12
  8064.000   4.095E-12
  8066.000   4.098E-12
  8068.000   4.102E-12
  8070.000   4.105E-12
  8072.000   4.109E-12
  8074.000   4.113E-12
  8076.000   4.116E-12
  8078.000   4.120E-12
  8080.000   4.124E-12
  8082.000   4.127E-12
  8084.000   4.131E-12
  8086.000   4.135E-12
  8088.000   4.138E-12
  8090.000   4.142E-12
  8092.000   4.146E-12
  8094.000   4.150E-12
  8096.000   4.154E-12
  8098.000   4.158E-12
  8100.000   4.161E-12
  8102.000   4.165E-12
  8104.000   4.170E-12
  8106.000   4.174E-12
  8108.000   4.178E-12
  8110.000   4.182E-12
  8112.000   4.186E-12
  8114.000   4.190E-12
  8116.000   4.194E-12
  8118.000   4.199E-12
  8120.000   4.203E-12
  8122.000   4.207E-12
  8124.000   4.212E-12
  8126.000   4.216E-12
  8128.000   4.221E-12
  8130.000   4.225E-12
  8132.000   4.230E-12
  8134.000   4.234E-12
  8136.000   4.239E-12
  8138.000   4.243E-12
  8140.000   4.248E-12
  8142.000   4.253E-12
  8144.000   4.258E-12
  8146.000   4.263E-12
  8148.000   4.268E-12
  8150.000   4.273E-12
  8152.000   4.278E-12
  8154.000   4.282E-12
  8156.000   4.287E-12
  8158.000   4.292E-12
  8160.000   4.297E-12
  8162.000   4.302E-12
  8164.000   4.307E-12
  8166.000   4.312E-12
  8168.000   4.318E-12
  8170.000   4.323E-12
  8172.000   4.329E-12
  8174.000   4.334E-12
  8176.000   4.340E-12
  8178.000   4.346E-12
  8180.000   4.351E-12
  8182.000   4.357E-12
  8184.000   4.362E-12
  8186.000   4.368E-12
  8188.000   4.373E-12
  8190.000   4.378E-12
  8192.000   4.384E-12
  8194.000   4.390E-12
  8196.000   4.395E-12
  8198.000   4.401E-12
  8200.000   4.407E-12
  8202.000   4.413E-12
  8204.000   4.419E-12
  8206.000   4.426E-12
  8208.000   4.432E-12
  8210.000   4.438E-12
  8212.000   4.444E-12
  8214.000   4.451E-12
  8216.000   4.457E-12
  8218.000   4.464E-12
  8220.000   4.470E-12
  8222.000   4.477E-12
  8224.000   4.483E-12
  8226.000   4.490E-12
  8228.000   4.496E-12
  8230.000   4.503E-12
  8232.000   4.510E-12
  8234.000   4.518E-12
  8236.000   4.525E-12
  8238.000   4.532E-12
  8240.000   4.540E-12
  8242.000   4.547E-12
  8244.000   4.553E-12
  8246.000   4.560E-12
  8248.000   4.567E-12
  8250.000   4.574E-12
  8252.000   4.581E-12
  8254.000   4.588E-12
  8256.000   4.596E-12
  8258.000   4.603E-12
  8260.000   4.610E-12
  8262.000   4.617E-12
  8264.000   4.624E-12
  8266.000   4.631E-12
  8268.000   4.638E-12
  8270.000   4.645E-12
  8272.000   4.653E-12
  8274.000   4.662E-12
  8276.000   4.670E-12
  8278.000   4.679E-12
  8280.000   4.688E-12
  8282.000   4.696E-12
  8284.000   4.704E-12
  8286.000   4.712E-12
  8288.000   4.720E-12
  8290.000   4.728E-12
  8292.000   4.736E-12
  8294.000   4.744E-12
  8296.000   4.752E-12
  8298.000   4.760E-12
  8300.000   4.767E-12
  8302.000   4.775E-12
  8304.000   4.783E-12
  8306.000   4.791E-12
  8308.000   4.798E-12
  8310.000   4.805E-12
  8312.000   4.812E-12
  8314.000   4.818E-12
  8316.000   4.824E-12
  8318.000   4.830E-12
  8320.000   4.836E-12
  8322.000   4.842E-12
  8324.000   4.848E-12
  8326.000   4.854E-12
  8328.000   4.859E-12
  8330.000   4.865E-12
  8332.000   4.869E-12
  8334.000   4.873E-12
  8336.000   4.878E-12
  8338.000   4.882E-12
  8340.000   4.886E-12
  8342.000   4.890E-12
  8344.000   4.895E-12
  8346.000   4.900E-12
  8348.000   4.904E-12
  8350.000   4.909E-12
  8352.000   4.914E-12
  8354.000   4.919E-12
  8356.000   4.924E-12
  8358.000   4.928E-12
  8360.000   4.934E-12
  8362.000   4.939E-12
  8364.000   4.944E-12
  8366.000   4.949E-12
  8368.000   4.954E-12
  8370.000   4.959E-12
  8372.000   4.964E-12
  8374.000   4.970E-12
  8376.000   4.975E-12
  8378.000   4.981E-12
  8380.000   4.987E-12
  8382.000   4.994E-12
  8384.000   5.001E-12
  8386.000   5.008E-12
  8388.000   5.015E-12
  8390.000   5.023E-12
  8392.000   5.031E-12
  8394.000   5.038E-12
  8396.000   5.046E-12
  8398.000   5.054E-12
  8400.000   5.061E-12
  8402.000   5.069E-12
  8404.000   5.076E-12
  8406.000   5.084E-12
  8408.000   5.091E-12
  8410.000   5.099E-12
  8412.000   5.106E-12
  8414.000   5.113E-12
  8416.000   5.121E-12
  8418.000   5.128E-12
  8420.000   5.135E-12
  8422.000   5.142E-12
  8424.000   5.149E-12
  8426.000   5.156E-12
  8428.000   5.162E-12
  8430.000   5.168E-12
  8432.000   5.174E-12
  8434.000   5.181E-12
  8436.000   5.187E-12
  8438.000   5.193E-12
  8440.000   5.198E-12
  8442.000   5.203E-12
  8444.000   5.208E-12
  8446.000   5.212E-12
  8448.000   5.216E-12
  8450.000   5.220E-12
  8452.000   5.224E-12
  8454.000   5.228E-12
  8456.000   5.231E-12
  8458.000   5.235E-12
  8460.000   5.239E-12
  8462.000   5.243E-12
  8464.000   5.247E-12
  8466.000   5.251E-12
  8468.000   5.256E-12
  8470.000   5.260E-12
  8472.000   5.263E-12
  8474.000   5.267E-12
  8476.000   5.270E-12
  8478.000   5.273E-12
  8480.000   5.276E-12
  8482.000   5.279E-12
  8484.000   5.281E-12
  8486.000   5.284E-12
  8488.000   5.286E-12
  8490.000   5.289E-12
  8492.000   5.293E-12
  8494.000   5.298E-12
  8496.000   5.303E-12
  8498.000   5.308E-12
  8500.000   5.313E-12
  8502.000   5.318E-12
  8504.000   5.322E-12
  8506.000   5.327E-12
  8508.000   5.331E-12
  8510.000   5.337E-12
  8512.000   5.342E-12
  8514.000   5.348E-12
  8516.000   5.354E-12
  8518.000   5.361E-12
  8520.000   5.367E-12
  8522.000   5.374E-12
  8524.000   5.381E-12
  8526.000   5.388E-12
  8528.000   5.396E-12
  8530.000   5.403E-12
  8532.000   5.412E-12
  8534.000   5.420E-12
  8536.000   5.429E-12
  8538.000   5.438E-12
  8540.000   5.447E-12
  8542.000   5.456E-12
  8544.000   5.465E-12
  8546.000   5.474E-12
  8548.000   5.484E-12
  8550.000   5.494E-12
  8552.000   5.505E-12
  8554.000   5.518E-12
  8556.000   5.530E-12
  8558.000   5.543E-12
  8560.000   5.556E-12
  8562.000   5.569E-12
  8564.000   5.582E-12
  8566.000   5.595E-12
  8568.000   5.609E-12
  8570.000   5.624E-12
  8572.000   5.640E-12
  8574.000   5.658E-12
  8576.000   5.676E-12
  8578.000   5.695E-12
  8580.000   5.714E-12
  8582.000   5.734E-12
  8584.000   5.754E-12
  8586.000   5.775E-12
  8588.000   5.797E-12
  8590.000   5.819E-12
  8592.000   5.843E-12
  8594.000   5.867E-12
  8596.000   5.891E-12
  8598.000   5.918E-12
  8600.000   5.945E-12
  8602.000   5.975E-12
  8604.000   6.006E-12
  8606.000   6.038E-12
  8608.000   6.071E-12
  8610.000   6.106E-12
  8612.000   6.141E-12
  8614.000   6.178E-12
  8616.000   6.216E-12
  8618.000   6.256E-12
  8620.000   6.298E-12
  8622.000   6.343E-12
  8624.000   6.390E-12
  8626.000   6.438E-12
  8628.000   6.489E-12
  8630.000   6.543E-12
  8632.000   6.598E-12
  8634.000   6.656E-12
  8636.000   6.715E-12
  8638.000   6.777E-12
  8640.000   6.842E-12
  8642.000   6.908E-12
  8644.000   6.976E-12
  8646.000   7.047E-12
  8648.000   7.120E-12
  8650.000   7.196E-12
  8652.000   7.276E-12
  8654.000   7.358E-12
  8656.000   7.442E-12
  8658.000   7.530E-12
  8660.000   7.619E-12
  8662.000   7.711E-12
  8664.000   7.805E-12
  8666.000   7.901E-12
  8668.000   7.999E-12
  8670.000   8.099E-12
  8672.000   8.200E-12
  8674.000   8.302E-12
  8676.000   8.406E-12
  8678.000   8.514E-12
  8680.000   8.628E-12
  8682.000   8.750E-12
  8684.000   8.879E-12
  8686.000   9.012E-12
  8688.000   9.146E-12
  8690.000   9.277E-12
  8692.000   9.407E-12
  8694.000   9.539E-12
  8696.000   9.670E-12
  8698.000   9.796E-12
  8700.000   9.914E-12
  8702.000   1.002E-11
  8704.000   1.013E-11
  8706.000   1.022E-11
  8708.000   1.032E-11
  8710.000   1.041E-11
  8712.000   1.050E-11
  8714.000   1.059E-11
  8716.000   1.068E-11
  8718.000   1.076E-11
  8720.000   1.085E-11
  8722.000   1.094E-11
  8724.000   1.102E-11
  8726.000   1.111E-11
  8728.000   1.120E-11
  8730.000   1.129E-11
  8732.000   1.139E-11
  8734.000   1.150E-11
  8736.000   1.160E-11
  8738.000   1.170E-11
  8740.000   1.178E-11
  8742.000   1.183E-11
  8744.000   1.187E-11
  8746.000   1.190E-11
  8748.000   1.192E-11
  8750.000   1.195E-11
  8752.000   1.199E-11
  8754.000   1.203E-11
  8756.000   1.206E-11
  8758.000   1.210E-11
  8760.000   1.215E-11
  8762.000   1.220E-11
  8764.000   1.225E-11
  8766.000   1.231E-11
  8768.000   1.237E-11
  8770.000   1.244E-11
  8772.000   1.252E-11
  8774.000   1.260E-11
  8776.000   1.268E-11
  8778.000   1.277E-11
  8780.000   1.287E-11
  8782.000   1.297E-11
  8784.000   1.309E-11
  8786.000   1.320E-11
  8788.000   1.331E-11
  8790.000   1.340E-11
  8792.000   1.346E-11
  8794.000   1.351E-11
  8796.000   1.355E-11
  8798.000   1.358E-11
  8800.000   1.363E-11
  8802.000   1.367E-11
  8804.000   1.371E-11
  8806.000   1.376E-11
  8808.000   1.381E-11
  8810.000   1.387E-11
  8812.000   1.395E-11
  8814.000   1.405E-11
  8816.000   1.415E-11
  8818.000   1.425E-11
  8820.000   1.433E-11
  8822.000   1.439E-11
  8824.000   1.445E-11
  8826.000   1.450E-11
  8828.000   1.454E-11
  8830.000   1.458E-11
  8832.000   1.461E-11
  8834.000   1.465E-11
  8836.000   1.468E-11
  8838.000   1.470E-11
  8840.000   1.471E-11
  8842.000   1.470E-11
  8844.000   1.468E-11
  8846.000   1.465E-11
  8848.000   1.462E-11
  8850.000   1.461E-11
  8852.000   1.462E-11
  8854.000   1.465E-11
  8856.000   1.467E-11
  8858.000   1.470E-11
  8860.000   1.472E-11
  8862.000   1.473E-11
  8864.000   1.475E-11
  8866.000   1.476E-11
  8868.000   1.475E-11
  8870.000   1.474E-11
  8872.000   1.471E-11
  8874.000   1.467E-11
  8876.000   1.462E-11
  8878.000   1.456E-11
  8880.000   1.449E-11
  8882.000   1.442E-11
  8884.000   1.435E-11
  8886.000   1.426E-11
  8888.000   1.417E-11
  8890.000   1.407E-11
  8892.000   1.397E-11
  8894.000   1.386E-11
  8896.000   1.374E-11
  8898.000   1.361E-11
  8900.000   1.348E-11
  8902.000   1.334E-11
  8904.000   1.320E-11
  8906.000   1.305E-11
  8908.000   1.290E-11
  8910.000   1.273E-11
  8912.000   1.255E-11
  8914.000   1.236E-11
  8916.000   1.216E-11
  8918.000   1.196E-11
  8920.000   1.177E-11
  8922.000   1.160E-11
  8924.000   1.143E-11
  8926.000   1.126E-11
  8928.000   1.110E-11
  8930.000   1.093E-11
  8932.000   1.076E-11
  8934.000   1.058E-11
  8936.000   1.041E-11
  8938.000   1.024E-11
  8940.000   1.008E-11
  8942.000   9.920E-12
  8944.000   9.770E-12
  8946.000   9.626E-12
  8948.000   9.489E-12
  8950.000   9.362E-12
  8952.000   9.245E-12
  8954.000   9.139E-12
  8956.000   9.039E-12
  8958.000   8.943E-12
  8960.000   8.848E-12
  8962.000   8.753E-12
  8964.000   8.660E-12
  8966.000   8.571E-12
  8968.000   8.485E-12
  8970.000   8.403E-12
  8972.000   8.327E-12
  8974.000   8.255E-12
  8976.000   8.187E-12
  8978.000   8.122E-12
  8980.000   8.059E-12
  8982.000   7.998E-12
  8984.000   7.939E-12
  8986.000   7.884E-12
  8988.000   7.831E-12
  8990.000   7.781E-12
  8992.000   7.734E-12
  8994.000   7.689E-12
  8996.000   7.648E-12
  8998.000   7.608E-12
  9000.000   7.571E-12
  9002.000   7.536E-12
  9004.000   7.504E-12
  9006.000   7.475E-12
  9008.000   7.447E-12
  9010.000   7.420E-12
  9012.000   7.394E-12
  9014.000   7.370E-12
  9016.000   7.348E-12
  9018.000   7.327E-12
  9020.000   7.307E-12
  9022.000   7.288E-12
  9024.000   7.270E-12
  9026.000   7.253E-12
  9028.000   7.237E-12
  9030.000   7.222E-12
  9032.000   7.207E-12
  9034.000   7.193E-12
  9036.000   7.180E-12
  9038.000   7.168E-12
  9040.000   7.155E-12
  9042.000   7.143E-12
  9044.000   7.132E-12
  9046.000   7.121E-12
  9048.000   7.111E-12
  9050.000   7.101E-12
  9052.000   7.091E-12
  9054.000   7.082E-12
  9056.000   7.074E-12
  9058.000   7.066E-12
  9060.000   7.058E-12
  9062.000   7.050E-12
  9064.000   7.044E-12
  9066.000   7.037E-12
  9068.000   7.031E-12
  9070.000   7.024E-12
  9072.000   7.018E-12
  9074.000   7.011E-12
  9076.000   7.005E-12
  9078.000   6.999E-12
  9080.000   6.993E-12
  9082.000   6.988E-12
  9084.000   6.983E-12
  9086.000   6.978E-12
  9088.000   6.973E-12
  9090.000   6.969E-12
  9092.000   6.965E-12
  9094.000   6.961E-12
  9096.000   6.957E-12
  9098.000   6.954E-12
  9100.000   6.951E-12
  9102.000   6.948E-12
  9104.000   6.945E-12
  9106.000   6.943E-12
  9108.000   6.940E-12
  9110.000   6.938E-12
  9112.000   6.935E-12
  9114.000   6.933E-12
  9116.000   6.931E-12
  9118.000   6.929E-12
  9120.000   6.927E-12
  9122.000   6.926E-12
  9124.000   6.925E-12
  9126.000   6.924E-12
  9128.000   6.923E-12
  9130.000   6.923E-12
  9132.000   6.922E-12
  9134.000   6.922E-12
  9136.000   6.922E-12
  9138.000   6.922E-12
  9140.000   6.922E-12
  9142.000   6.922E-12
  9144.000   6.922E-12
  9146.000   6.922E-12
  9148.000   6.922E-12
  9150.000   6.923E-12
  9152.000   6.924E-12
  9154.000   6.925E-12
  9156.000   6.927E-12
  9158.000   6.929E-12
  9160.000   6.930E-12
  9162.000   6.932E-12
  9164.000   6.933E-12
  9166.000   6.934E-12
  9168.000   6.935E-12
  9170.000   6.937E-12
  9172.000   6.939E-12
  9174.000   6.941E-12
  9176.000   6.944E-12
  9178.000   6.946E-12
  9180.000   6.948E-12
  9182.000   6.951E-12
  9184.000   6.953E-12
  9186.000   6.955E-12
  9188.000   6.958E-12
  9190.000   6.960E-12
  9192.000   6.963E-12
  9194.000   6.966E-12
  9196.000   6.969E-12
  9198.000   6.972E-12
  9200.000   6.975E-12
  9202.000   6.978E-12
  9204.000   6.981E-12
  9206.000   6.985E-12
  9208.000   6.988E-12
  9210.000   6.992E-12
  9212.000   6.995E-12
  9214.000   6.999E-12
  9216.000   7.002E-12
  9218.000   7.006E-12
  9220.000   7.010E-12
  9222.000   7.013E-12
  9224.000   7.018E-12
  9226.000   7.022E-12
  9228.000   7.026E-12
  9230.000   7.030E-12
  9232.000   7.034E-12
  9234.000   7.038E-12
  9236.000   7.042E-12
  9238.000   7.046E-12
  9240.000   7.050E-12
  9242.000   7.054E-12
  9244.000   7.058E-12
  9246.000   7.063E-12
  9248.000   7.067E-12
  9250.000   7.072E-12
  9252.000   7.077E-12
  9254.000   7.081E-12
  9256.000   7.086E-12
  9258.000   7.091E-12
  9260.000   7.095E-12
  9262.000   7.100E-12
  9264.000   7.105E-12
  9266.000   7.110E-12
  9268.000   7.115E-12
  9270.000   7.120E-12
  9272.000   7.125E-12
  9274.000   7.130E-12
  9276.000   7.135E-12
  9278.000   7.140E-12
  9280.000   7.146E-12
  9282.000   7.151E-12
  9284.000   7.156E-12
  9286.000   7.162E-12
  9288.000   7.167E-12
  9290.000   7.173E-12
  9292.000   7.178E-12
  9294.000   7.184E-12
  9296.000   7.189E-12
  9298.000   7.195E-12
  9300.000   7.201E-12
  9302.000   7.206E-12
  9304.000   7.212E-12
  9306.000   7.218E-12
  9308.000   7.224E-12
  9310.000   7.230E-12
  9312.000   7.236E-12
  9314.000   7.241E-12
  9316.000   7.247E-12
  9318.000   7.253E-12
  9320.000   7.260E-12
  9322.000   7.266E-12
  9324.000   7.272E-12
  9326.000   7.278E-12
  9328.000   7.284E-12
  9330.000   7.291E-12
  9332.000   7.297E-12
  9334.000   7.303E-12
  9336.000   7.310E-12
  9338.000   7.316E-12
  9340.000   7.323E-12
  9342.000   7.329E-12
  9344.000   7.336E-12
  9346.000   7.342E-12
  9348.000   7.349E-12
  9350.000   7.355E-12
  9352.000   7.362E-12
  9354.000   7.369E-12
  9356.000   7.375E-12
  9358.000   7.382E-12
  9360.000   7.389E-12
  9362.000   7.395E-12
  9364.000   7.402E-12
  9366.000   7.408E-12
  9368.000   7.415E-12
  9370.000   7.422E-12
  9372.000   7.428E-12
  9374.000   7.435E-12
  9376.000   7.441E-12
  9378.000   7.447E-12
  9380.000   7.453E-12
  9382.000   7.459E-12
  9384.000   7.465E-12
  9386.000   7.471E-12
  9388.000   7.477E-12
  9390.000   7.483E-12
  9392.000   7.488E-12
  9394.000   7.494E-12
  9396.000   7.500E-12
  9398.000   7.506E-12
  9400.000   7.512E-12
  9402.000   7.518E-12
  9404.000   7.524E-12
  9406.000   7.530E-12
  9408.000   7.535E-12
  9410.000   7.541E-12
  9412.000   7.547E-12
  9414.000   7.553E-12
  9416.000   7.559E-12
  9418.000   7.565E-12
  9420.000   7.571E-12
  9422.000   7.577E-12
  9424.000   7.584E-12
  9426.000   7.590E-12
  9428.000   7.596E-12
  9430.000   7.602E-12
  9432.000   7.608E-12
  9434.000   7.614E-12
  9436.000   7.620E-12
  9438.000   7.626E-12
  9440.000   7.632E-12
  9442.000   7.638E-12
  9444.000   7.644E-12
  9446.000   7.650E-12
  9448.000   7.656E-12
  9450.000   7.662E-12
  9452.000   7.667E-12
  9454.000   7.673E-12
  9456.000   7.679E-12
  9458.000   7.685E-12
  9460.000   7.691E-12
  9462.000   7.697E-12
  9464.000   7.703E-12
  9466.000   7.709E-12
  9468.000   7.715E-12
  9470.000   7.720E-12
  9472.000   7.726E-12
  9474.000   7.732E-12
  9476.000   7.738E-12
  9478.000   7.744E-12
  9480.000   7.751E-12
  9482.000   7.757E-12
  9484.000   7.763E-12
  9486.000   7.769E-12
  9488.000   7.775E-12
  9490.000   7.781E-12
  9492.000   7.787E-12
  9494.000   7.794E-12
  9496.000   7.800E-12
  9498.000   7.806E-12
  9500.000   7.812E-12
  9502.000   7.819E-12
  9504.000   7.825E-12
  9506.000   7.831E-12
  9508.000   7.837E-12
  9510.000   7.844E-12
  9512.000   7.850E-12
  9514.000   7.857E-12
  9516.000   7.863E-12
  9518.000   7.869E-12
  9520.000   7.876E-12
  9522.000   7.882E-12
  9524.000   7.889E-12
  9526.000   7.895E-12
  9528.000   7.901E-12
  9530.000   7.908E-12
  9532.000   7.914E-12
  9534.000   7.921E-12
  9536.000   7.927E-12
  9538.000   7.934E-12
  9540.000   7.940E-12
  9542.000   7.947E-12
  9544.000   7.953E-12
  9546.000   7.960E-12
  9548.000   7.967E-12
  9550.000   7.973E-12
  9552.000   7.980E-12
  9554.000   7.986E-12
  9556.000   7.993E-12
  9558.000   7.999E-12
  9560.000   8.006E-12
  9562.000   8.013E-12
  9564.000   8.019E-12
  9566.000   8.026E-12
  9568.000   8.033E-12
  9570.000   8.039E-12
  9572.000   8.046E-12
  9574.000   8.052E-12
  9576.000   8.059E-12
  9578.000   8.066E-12
  9580.000   8.073E-12
  9582.000   8.079E-12
  9584.000   8.086E-12
  9586.000   8.093E-12
  9588.000   8.099E-12
  9590.000   8.106E-12
  9592.000   8.113E-12
  9594.000   8.119E-12
  9596.000   8.126E-12
  9598.000   8.133E-12
  9600.000   8.140E-12
  9602.000   8.146E-12
  9604.000   8.153E-12
  9606.000   8.160E-12
  9608.000   8.167E-12
  9610.000   8.173E-12
  9612.000   8.180E-12
  9614.000   8.187E-12
  9616.000   8.194E-12
  9618.000   8.201E-12
  9620.000   8.207E-12
  9622.000   8.214E-12
  9624.000   8.221E-12
  9626.000   8.228E-12
  9628.000   8.235E-12
  9630.000   8.241E-12
  9632.000   8.248E-12
  9634.000   8.255E-12
  9636.000   8.262E-12
  9638.000   8.269E-12
  9640.000   8.276E-12
  9642.000   8.283E-12
  9644.000   8.289E-12
  9646.000   8.296E-12
  9648.000   8.303E-12
  9650.000   8.310E-12
  9652.000   8.317E-12
  9654.000   8.324E-12
  9656.000   8.331E-12
  9658.000   8.338E-12
  9660.000   8.345E-12
  9662.000   8.352E-12
  9664.000   8.359E-12
  9666.000   8.366E-12
  9668.000   8.372E-12
  9670.000   8.379E-12
  9672.000   8.386E-12
  9674.000   8.393E-12
  9676.000   8.400E-12
  9678.000   8.407E-12
  9680.000   8.414E-12
  9682.000   8.421E-12
  9684.000   8.428E-12
  9686.000   8.435E-12
  9688.000   8.442E-12
  9690.000   8.449E-12
  9692.000   8.456E-12
  9694.000   8.463E-12
  9696.000   8.471E-12
  9698.000   8.478E-12
  9700.000   8.485E-12
  9702.000   8.492E-12
  9704.000   8.499E-12
  9706.000   8.506E-12
  9708.000   8.513E-12
  9710.000   8.520E-12
  9712.000   8.527E-12
  9714.000   8.534E-12
  9716.000   8.541E-12
  9718.000   8.548E-12
  9720.000   8.556E-12
  9722.000   8.563E-12
  9724.000   8.570E-12
  9726.000   8.577E-12
  9728.000   8.584E-12
  9730.000   8.591E-12
  9732.000   8.599E-12
  9734.000   8.606E-12
  9736.000   8.613E-12
  9738.000   8.620E-12
  9740.000   8.627E-12
  9742.000   8.634E-12
  9744.000   8.642E-12
  9746.000   8.649E-12
  9748.000   8.656E-12
  9750.000   8.663E-12
  9752.000   8.670E-12
  9754.000   8.678E-12
  9756.000   8.685E-12
  9758.000   8.692E-12
  9760.000   8.699E-12
  9762.000   8.707E-12
  9764.000   8.714E-12
  9766.000   8.721E-12
  9768.000   8.728E-12
  9770.000   8.736E-12
  9772.000   8.743E-12
  9774.000   8.750E-12
  9776.000   8.757E-12
  9778.000   8.764E-12
  9780.000   8.772E-12
  9782.000   8.779E-12
  9784.000   8.786E-12
  9786.000   8.794E-12
  9788.000   8.801E-12
  9790.000   8.808E-12
  9792.000   8.815E-12
  9794.000   8.823E-12
  9796.000   8.830E-12
  9798.000   8.837E-12
  9800.000   8.844E-12
  9802.000   8.852E-12
  9804.000   8.859E-12
  9806.000   8.866E-12
  9808.000   8.873E-12
  9810.000   8.881E-12
  9812.000   8.888E-12
  9814.000   8.895E-12
  9816.000   8.903E-12
  9818.000   8.910E-12
  9820.000   8.917E-12
  9822.000   8.924E-12
  9824.000   8.932E-12
  9826.000   8.939E-12
  9828.000   8.947E-12
  9830.000   8.954E-12
  9832.000   8.961E-12
  9834.000   8.969E-12
  9836.000   8.976E-12
  9838.000   8.983E-12
  9840.000   8.991E-12
  9842.000   8.998E-12
  9844.000   9.005E-12
  9846.000   9.013E-12
  9848.000   9.020E-12
  9850.000   9.028E-12
  9852.000   9.035E-12
  9854.000   9.043E-12
  9856.000   9.050E-12
  9858.000   9.058E-12
  9860.000   9.065E-12
  9862.000   9.073E-12
  9864.000   9.080E-12
  9866.000   9.087E-12
  9868.000   9.095E-12
  9870.000   9.102E-12
  9872.000   9.110E-12
  9874.000   9.118E-12
  9876.000   9.125E-12
  9878.000   9.133E-12
  9880.000   9.140E-12
  9882.000   9.148E-12
  9884.000   9.155E-12
  9886.000   9.163E-12
  9888.000   9.170E-12
  9890.000   9.178E-12
  9892.000   9.185E-12
  9894.000   9.193E-12
  9896.000   9.200E-12
  9898.000   9.208E-12
  9900.000   9.215E-12
  9902.000   9.223E-12
  9904.000   9.231E-12
  9906.000   9.238E-12
  9908.000   9.246E-12
  9910.000   9.253E-12
  9912.000   9.261E-12
  9914.000   9.268E-12
  9916.000   9.276E-12
  9918.000   9.283E-12
  9920.000   9.291E-12
  9922.000   9.298E-12
  9924.000   9.306E-12
  9926.000   9.313E-12
  9928.000   9.321E-12
  9930.000   9.328E-12
  9932.000   9.336E-12
  9934.000   9.344E-12
  9936.000   9.351E-12
  9938.000   9.359E-12
  9940.000   9.366E-12
  9942.000   9.374E-12
  9944.000   9.381E-12
  9946.000   9.389E-12
  9948.000   9.396E-12
  9950.000   9.404E-12
  9952.000   9.411E-12
  9954.000   9.419E-12
  9956.000   9.427E-12
  9958.000   9.434E-12
  9960.000   9.442E-12
  9962.000   9.449E-12
  9964.000   9.457E-12
  9966.000   9.465E-12
  9968.000   9.472E-12
  9970.000   9.480E-12
  9972.000   9.488E-12
  9974.000   9.495E-12
  9976.000   9.503E-12
  9978.000   9.511E-12
  9980.000   9.518E-12
  9982.000   9.526E-12
  9984.000   9.534E-12
  9986.000   9.542E-12
  9988.000   9.549E-12
  9990.000   9.557E-12
  9992.000   9.565E-12
  9994.000   9.573E-12
  9996.000   9.580E-12
  9998.000   9.588E-12
 10000.000   9.596E-12
