% The water continuum used by the December 2002 "version 7" AIRS
% fast model coefficient is a hybrid of kCARTA's 51 (aka 5.1) and
% 55 (aka 5.5) continuum models developed by UMBC based on the
% CDK models.
%
% Scott Hannon, 13 March 2003
%
% ID = AIRS channel ID (PGE version)
% freq = channel centroid frequency (cm^-1)
% CKD = kCARTA continuum version number
% mult = multiplier applied to the kCARTA continuum 
%
% in SPECTRA/ckd_lookupBIN_v60special.m we combine CKD 51 and CKD 55 as below
%
% ID    freq   CKD   mult
%---- -------- --- --------
    1  649.612  51  0.87000
    2  649.851  51  0.87000
    3  650.089  51  0.87000
    4  650.328  51  0.87000
    5  650.567  51  0.87000
    6  650.806  51  0.87000
    7  651.046  51  0.87000
    8  651.285  51  0.87000
    9  651.525  51  0.87000
   10  651.765  51  0.87000
   11  652.005  51  0.87000
   12  652.245  51  0.87000
   13  652.486  51  0.87000
   14  652.727  51  0.87000
   15  652.968  51  0.87000
   16  653.209  51  0.87000
   17  653.450  51  0.87000
   18  653.691  51  0.87000
   19  653.933  51  0.87000
   20  654.175  51  0.87000
   21  654.417  51  0.87000
   22  654.659  51  0.87000
   23  654.901  51  0.87000
   24  655.144  51  0.87000
   25  655.387  51  0.87000
   26  655.630  51  0.87000
   27  655.873  51  0.87000
   28  656.116  51  0.87000
   29  656.360  51  0.87000
   30  656.604  51  0.87000
   31  656.848  51  0.87000
   32  657.092  51  0.87000
   33  657.336  51  0.87000
   34  657.581  51  0.87000
   35  657.825  51  0.87000
   36  658.070  51  0.87000
   37  658.315  51  0.87000
   38  658.561  51  0.87000
   39  658.806  51  0.87000
   40  659.052  51  0.87000
   41  659.298  51  0.87000
   42  659.544  51  0.87000
   43  659.790  51  0.87000
   44  660.036  51  0.87000
   45  660.283  51  0.87000
   46  660.530  51  0.87000
   47  660.777  51  0.87000
   48  661.024  51  0.87000
   49  661.272  51  0.87000
   50  661.519  51  0.87000
   51  661.767  51  0.87000
   52  662.015  51  0.87000
   53  662.263  51  0.87000
   54  662.512  51  0.87000
   55  662.761  51  0.87000
   56  663.009  51  0.87000
   57  663.258  51  0.87000
   58  663.508  51  0.87000
   59  663.757  51  0.87000
   60  664.007  51  0.87000
   61  664.256  51  0.87000
   62  664.506  51  0.87000
   63  664.757  51  0.87000
   64  665.007  51  0.87000
   65  665.258  51  0.87000
   66  665.508  51  0.87000
   67  665.760  51  0.87000
   68  666.011  51  0.87000
   69  666.262  51  0.87000
   70  666.514  51  0.87000
   71  666.766  51  0.87000
   72  667.018  51  0.87000
   73  667.270  51  0.87000
   74  667.522  51  0.87000
   75  667.775  51  0.87000
   76  668.028  51  0.87000
   77  668.281  51  0.87000
   78  668.534  51  0.87000
   79  668.787  51  0.87000
   80  669.041  51  0.87000
   81  669.295  51  0.87000
   82  669.549  51  0.87000
   83  669.803  51  0.87000
   84  670.057  51  0.87000
   85  670.312  51  0.87000
   86  670.567  51  0.87000
   87  670.822  51  0.87000
   88  671.077  51  0.87000
   89  671.333  51  0.87000
   90  671.588  51  0.87000
   91  671.844  51  0.87000
   92  672.100  51  0.87000
   93  672.357  51  0.87000
   94  672.613  51  0.87000
   95  672.870  51  0.87000
   96  673.127  51  0.87000
   97  673.384  51  0.87000
   98  673.641  51  0.87000
   99  673.899  51  0.87000
  100  674.156  51  0.87000
  101  674.414  51  0.87000
  102  674.672  51  0.87000
  103  674.931  51  0.87000
  104  675.189  51  0.87000
  105  675.448  51  0.87000
  106  675.707  51  0.87000
  107  675.966  51  0.87000
  108  676.226  51  0.87000
  109  676.485  51  0.87000
  110  676.745  51  0.87000
  111  677.005  51  0.87000
  112  677.265  51  0.87000
  113  677.526  51  0.87000
  114  677.786  51  0.87000
  115  678.047  51  0.87000
  116  678.308  51  0.87000
  117  678.569  51  0.87000
  118  678.831  51  0.87000
  119  679.093  51  0.87000
  120  679.355  51  0.87000
  121  679.617  51  0.87000
  122  679.879  51  0.87000
  123  680.141  51  0.87000
  124  680.404  51  0.87000
  125  680.667  51  0.87000
  126  680.930  51  0.87000
  127  681.194  51  0.87000
  128  681.457  51  0.87000
  129  681.721  51  0.87000
  130  681.985  51  0.87000
  131  687.601  51  0.87000
  132  687.871  51  0.87000
  133  688.140  51  0.87000
  134  688.410  51  0.87000
  135  688.680  51  0.87000
  136  688.950  51  0.87000
  137  689.220  51  0.87000
  138  689.491  51  0.87000
  139  689.762  51  0.87000
  140  690.033  51  0.87000
  141  690.304  51  0.87000
  142  690.576  51  0.87000
  143  690.847  51  0.87000
  144  691.119  51  0.87000
  145  691.391  51  0.87000
  146  691.664  51  0.87000
  147  691.936  51  0.87000
  148  692.209  51  0.87000
  149  692.482  51  0.87000
  150  692.755  51  0.87000
  151  693.029  51  0.87000
  152  693.302  51  0.87000
  153  693.576  51  0.87000
  154  693.851  51  0.87000
  155  694.125  51  0.87000
  156  694.399  51  0.87000
  157  694.674  51  0.87000
  158  694.949  51  0.87000
  159  695.225  51  0.87000
  160  695.500  51  0.87000
  161  695.776  51  0.87000
  162  696.052  51  0.87000
  163  696.328  51  0.87000
  164  696.604  51  0.87000
  165  696.881  51  0.87000
  166  697.158  51  0.87000
  167  697.435  51  0.87000
  168  697.712  51  0.87000
  169  697.990  51  0.87000
  170  698.267  51  0.87000
  171  698.545  51  0.87000
  172  698.823  51  0.87000
  173  699.102  51  0.87000
  174  699.381  51  0.87000
  175  699.659  51  0.87000
  176  699.939  51  0.87000
  177  700.218  51  0.87000
  178  700.497  51  0.87000
  179  700.777  51  0.87000
  180  701.057  51  0.87000
  181  701.338  51  0.87000
  182  701.618  51  0.87000
  183  701.899  51  0.87000
  184  702.180  51  0.87000
  185  702.461  51  0.87000
  186  702.742  51  0.87000
  187  703.024  51  0.87000
  188  703.306  51  0.87000
  189  703.588  51  0.87000
  190  703.870  51  0.87000
  191  704.153  51  0.87000
  192  704.436  51  0.87000
  193  704.719  51  0.87000
  194  705.002  51  0.87000
  195  705.285  51  0.87000
  196  705.569  51  0.87000
  197  705.853  51  0.87000
  198  706.137  51  0.87000
  199  706.422  51  0.87000
  200  706.706  51  0.87000
  201  706.991  51  0.87000
  202  707.276  51  0.87000
  203  707.562  51  0.87000
  204  707.847  51  0.87000
  205  708.133  51  0.87000
  206  708.419  51  0.87000
  207  708.706  51  0.87000
  208  708.992  51  0.87000
  209  709.279  51  0.87000
  210  709.566  51  0.87000
  211  709.853  51  0.87000
  212  710.141  51  0.87000
  213  710.428  51  0.87000
  214  710.716  51  0.87000
  215  711.005  51  0.87000
  216  711.293  51  0.87000
  217  711.582  51  0.87000
  218  711.871  51  0.87000
  219  712.160  51  0.87000
  220  712.449  51  0.87000
  221  712.739  51  0.87000
  222  713.029  51  0.87000
  223  713.319  51  0.87000
  224  713.609  51  0.87000
  225  713.900  51  0.87000
  226  714.191  51  0.87000
  227  714.482  51  0.87000
  228  714.773  51  0.87000
  229  715.065  51  0.87000
  230  715.356  51  0.87000
  231  715.648  51  0.87000
  232  715.941  51  0.87000
  233  716.233  51  0.87000
  234  716.526  51  0.87000
  235  716.819  51  0.87000
  236  717.112  51  0.87000
  237  717.406  51  0.87000
  238  717.700  51  0.87000
  239  717.994  51  0.87000
  240  718.288  51  0.87000
  241  718.582  51  0.87000
  242  718.877  51  0.87000
  243  719.172  51  0.87000
  244  719.467  51  0.87000
  245  719.763  51  0.87000
  246  720.058  51  0.87000
  247  720.354  51  0.87000
  248  720.651  51  0.87000
  249  720.947  51  0.87000
  250  721.244  51  0.87000
  251  721.541  51  0.87000
  252  721.838  51  0.87000
  253  722.135  51  0.87000
  254  722.433  51  0.87000
  255  722.731  51  0.87000
  256  723.029  51  0.87000
  257  723.328  51  0.87000
  258  723.626  51  0.87000
  259  723.925  51  0.87000
  260  724.224  51  0.87000
  261  724.524  51  0.87000
  262  724.823  51  0.87000
  263  725.123  51  0.87000
  264  725.424  51  0.87000
  265  725.724  51  0.87000
  266  726.025  51  0.87000
  267  726.326  51  0.87000
  268  726.627  51  0.87000
  269  726.928  51  0.87000
  270  727.230  51  0.87000
  271  727.532  51  0.87000
  272  727.834  51  0.87000
  273  728.137  51  0.87000
  274  728.439  51  0.87000
  275  728.055  51  0.87000
  276  728.357  51  0.87000
  277  728.660  51  0.87000
  278  728.963  51  0.87000
  279  729.266  51  0.87000
  280  729.569  51  0.87000
  281  729.873  51  0.87000
  282  730.177  51  0.87000
  283  730.481  51  0.87000
  284  730.785  51  0.87000
  285  731.090  51  0.87000
  286  731.395  51  0.87000
  287  731.700  51  0.87000
  288  732.005  51  0.87000
  289  732.311  51  0.87000
  290  732.617  51  0.87000
  291  732.923  51  0.87000
  292  733.229  51  0.87000
  293  733.536  51  0.87000
  294  733.843  51  0.87000
  295  734.150  51  0.87000
  296  734.458  51  0.87000
  297  734.765  51  0.87000
  298  735.073  51  0.87000
  299  735.381  51  0.87000
  300  735.690  51  0.87000
  301  735.999  51  0.87000
  302  736.308  51  0.87000
  303  736.617  51  0.87000
  304  736.926  51  0.87000
  305  737.236  51  0.87000
  306  737.546  51  0.87000
  307  737.856  51  0.87000
  308  738.167  51  0.87000
  309  738.477  51  0.87000
  310  738.788  51  0.87000
  311  739.100  51  0.87000
  312  739.411  51  0.87000
  313  739.723  51  0.87000
  314  740.035  51  0.87000
  315  740.347  51  0.87000
  316  740.660  51  0.87000
  317  740.973  51  0.87000
  318  741.286  51  0.87000
  319  741.599  51  0.87000
  320  741.913  51  0.87000
  321  742.227  51  0.87000
  322  742.541  51  0.87000
  323  742.855  51  0.87000
  324  743.170  51  0.87000
  325  743.485  51  0.87000
  326  743.800  51  0.87000
  327  744.116  51  0.87000
  328  744.431  51  0.87000
  329  744.747  51  0.87000
  330  745.064  51  0.87000
  331  745.380  51  0.87000
  332  745.697  51  0.87000
  333  746.014  51  0.87000
  334  746.331  51  0.87000
  335  746.649  51  0.87000
  336  746.967  51  0.87000
  337  747.285  51  0.87000
  338  747.603  51  0.87000
  339  747.922  51  0.87000
  340  748.241  51  0.87000
  341  748.560  51  0.87000
  342  748.879  51  0.87000
  343  749.199  51  0.87000
  344  749.519  51  0.87000
  345  749.839  51  0.87000
  346  750.160  51  0.87000
  347  750.481  51  0.87000
  348  750.802  51  0.87000
  349  751.123  51  0.87000
  350  751.445  51  0.87000
  351  751.767  51  0.87000
  352  752.089  51  0.87000
  353  752.411  51  0.87000
  354  752.734  51  0.87000
  355  753.057  51  0.87000
  356  753.380  51  0.87000
  357  753.703  51  0.87000
  358  754.027  51  0.87000
  359  754.351  51  0.87000
  360  754.676  51  0.87000
  361  755.000  51  0.87000
  362  755.325  51  0.87000
  363  755.650  51  0.87000
  364  755.976  51  0.87000
  365  756.301  51  0.87000
  366  756.627  51  0.87000
  367  756.954  51  0.87000
  368  757.280  51  0.87000
  369  757.607  51  0.87000
  370  757.934  51  0.87000
  371  758.261  51  0.87000
  372  758.589  51  0.87000
  373  758.917  51  0.87000
  374  759.245  51  0.87000
  375  759.573  51  0.87000
  376  759.902  51  0.87000
  377  760.231  51  0.87000
  378  760.561  51  0.87000
  379  760.890  51  0.87000
  380  761.220  51  0.87000
  381  761.550  51  0.87000
  382  761.880  51  0.87000
  383  762.211  51  0.87000
  384  762.542  51  0.87000
  385  762.873  51  0.87000
  386  763.205  51  0.87000
  387  763.537  51  0.87000
  388  763.869  51  0.87000
  389  764.201  51  0.87000
  390  764.534  51  0.87000
  391  764.867  51  0.87000
  392  765.200  51  0.87000
  393  765.534  51  0.87000
  394  765.867  51  0.87000
  395  766.201  51  0.87000
  396  766.536  51  0.87000
  397  766.870  51  0.87000
  398  767.205  51  0.87000
  399  767.541  51  0.87000
  400  767.876  51  0.87000
  401  768.212  51  0.87000
  402  768.548  51  0.87000
  403  768.884  51  0.87000
  404  769.221  51  0.87000
  405  769.558  51  0.87000
  406  769.895  51  0.87000
  407  770.233  51  0.87000
  408  770.570  51  0.87000
  409  770.909  51  0.87000
  410  771.247  51  0.87000
  411  771.586  51  0.87000
  412  771.925  51  0.87000
  413  772.264  51  0.87000
  414  772.603  51  0.87000
  415  772.943  51  0.87000
  416  773.283  51  0.87000
  417  773.624  51  0.87000
  418  773.964  51  0.87000
  419  774.305  51  0.87000
  420  774.647  51  0.87000
  421  774.988  51  0.87000
  422  775.330  51  0.87000
  423  775.672  51  0.87000
  424  776.015  51  0.87000
  425  776.357  51  0.87000
  426  776.700  51  0.87000
  427  777.044  51  0.87000
  428  777.387  51  0.87000
  429  777.731  51  0.87000
  430  778.076  51  0.87000
  431  778.420  51  0.87000
  432  778.765  51  0.87000
  433  779.110  51  0.87000
  434  779.455  51  0.87000
  435  779.801  51  0.87000
  436  780.147  51  0.87000
  437  780.493  51  0.87000
  438  780.840  51  0.87000
  439  781.187  51  0.87000
  440  781.534  51  0.87000
  441  781.882  51  0.87000
  442  789.263  51  0.87000
  443  789.616  51  0.87000
  444  789.971  51  0.87000
  445  790.325  51  0.87000
  446  790.680  51  0.87000
  447  791.035  51  0.87000
  448  791.390  51  0.87000
  449  791.745  51  0.87000
  450  792.101  51  0.87000
  451  792.457  51  0.87000
  452  792.814  51  0.87000
  453  793.171  51  0.87000
  454  793.528  51  0.87000
  455  793.885  51  0.87000
  456  794.243  51  0.87000
  457  794.601  51  0.87000
  458  794.959  51  0.87000
  459  795.318  51  0.87000
  460  795.677  51  0.87000
  461  796.036  51  0.87000
  462  796.396  51  0.87000
  463  796.756  51  0.87000
  464  797.116  51  0.87000
  465  797.477  51  0.87000
  466  797.837  51  0.87000
  467  798.199  51  0.87000
  468  798.560  51  0.87000
  469  798.922  51  0.87000
  470  799.284  51  0.87000
  471  799.646  51  0.87000
  472  800.009  51  0.87000
  473  800.372  51  0.87000
  474  800.735  51  0.87000
  475  801.099  51  0.87000
  476  801.463  51  0.87000
  477  801.827  51  0.87000
  478  802.192  51  0.87000
  479  802.557  51  0.87000
  480  802.922  51  0.87000
  481  803.288  51  0.87000
  482  803.654  51  0.87000
  483  804.020  51  0.87000
  484  804.386  51  0.87000
  485  804.753  51  0.87000
  486  805.120  51  0.87000
  487  805.488  51  0.87000
  488  805.856  51  0.87000
  489  806.224  51  0.87000
  490  806.592  51  0.87000
  491  806.961  51  0.87000
  492  807.330  51  0.87000
  493  807.699  51  0.87000
  494  808.069  51  0.87000
  495  808.439  51  0.87000
  496  808.809  51  0.87000
  497  809.180  51  0.87000
  498  809.551  51  0.87000
  499  809.922  51  0.87000
  500  810.294  51  0.87000
  501  810.666  51  0.87000
  502  811.038  51  0.87000
  503  811.411  51  0.87000
  504  811.784  51  0.87000
  505  812.157  51  0.87000
  506  812.531  51  0.87000
  507  812.905  51  0.87000
  508  813.279  51  0.87000
  509  813.654  51  0.87000
  510  814.029  51  0.87000
  511  814.404  51  0.87000
  512  814.779  51  0.87000
  513  815.155  51  0.87000
  514  815.532  51  0.87000
  515  815.908  51  0.87000
  516  816.285  51  0.87000
  517  816.662  51  0.87000
  518  817.040  51  0.87000
  519  817.418  51  0.87000
  520  817.796  51  0.87000
  521  818.174  51  0.87000
  522  818.553  51  0.87000
  523  818.933  51  0.87000
  524  819.312  51  0.87000
  525  819.692  51  0.87000
  526  820.072  51  0.87000
  527  820.453  51  0.87000
  528  820.834  51  0.87000
  529  821.215  51  0.87000
  530  821.596  51  0.87000
  531  821.978  51  0.87000
  532  822.361  51  0.87000
  533  822.743  51  0.87000
  534  823.126  51  0.87000
  535  823.509  51  0.87000
  536  823.893  51  0.87000
  537  824.277  51  0.87000
  538  824.661  51  0.87000
  539  825.046  51  0.87000
  540  825.431  51  0.87000
  541  825.816  51  0.87000
  542  826.202  51  0.87000
  543  826.587  51  0.87000
  544  826.974  51  0.87000
  545  827.360  51  0.87000
  546  827.747  51  0.87000
  547  828.135  51  0.87000
  548  828.522  51  0.87000
  549  828.910  51  0.87000
  550  829.299  51  0.87000
  551  829.687  51  0.87000
  552  830.076  51  0.87000
  553  830.466  51  0.87000
  554  830.856  51  0.87000
  555  831.246  51  0.87000
  556  831.636  51  0.87000
  557  832.027  51  0.87000
  558  832.418  51  0.87000
  559  832.809  51  0.87000
  560  833.201  51  0.87000
  561  833.593  51  0.87000
  562  833.986  51  0.87000
  563  834.379  51  0.87000
  564  834.772  51  0.87000
  565  835.166  51  0.87000
  566  835.559  51  0.87000
  567  835.954  51  0.87000
  568  836.348  51  0.87000
  569  836.743  51  0.87000
  570  837.139  51  0.87000
  571  837.534  51  0.87000
  572  837.930  51  0.87000
  573  838.327  51  0.87000
  574  838.723  51  0.87000
  575  839.120  51  0.87000
  576  839.518  51  0.87000
  577  839.916  51  0.87000
  578  840.314  51  0.87000
  579  840.712  51  0.87000
  580  841.111  51  0.87000
  581  841.510  51  0.87000
  582  841.910  51  0.87000
  583  842.310  51  0.87000
  584  842.710  51  0.87000
  585  843.111  51  0.87000
  586  843.512  51  0.87000
  587  843.913  51  0.87000
  588  844.315  51  0.87000
  589  844.717  51  0.87000
  590  845.119  51  0.87000
  591  845.522  51  0.87000
  592  845.925  51  0.87000
  593  846.329  51  0.87000
  594  846.732  51  0.87000
  595  847.137  51  0.87000
  596  847.541  51  0.87000
  597  847.946  51  0.87000
  598  848.352  51  0.87000
  599  848.757  51  0.87000
  600  849.163  51  0.87000
  601  849.570  51  0.87000
  602  849.977  51  0.87000
  603  850.384  51  0.87000
  604  850.791  51  0.87000
  605  851.199  51  0.87000
  606  851.607  51  0.87000
  607  852.016  51  0.87000
  608  852.425  51  0.87000
  609  851.490  51  0.87000
  610  851.797  51  0.87000
  611  852.104  51  0.87000
  612  852.411  51  0.87000
  613  852.718  51  0.87000
  614  853.026  51  0.87000
  615  853.334  51  0.87000
  616  853.642  51  0.87000
  617  853.950  51  0.87000
  618  854.259  51  0.87000
  619  854.568  51  0.87000
  620  854.877  51  0.87000
  621  855.186  51  0.87000
  622  855.495  51  0.87000
  623  855.805  51  0.87000
  624  856.115  51  0.87000
  625  856.426  51  0.87000
  626  856.736  51  0.87000
  627  857.047  51  0.87000
  628  857.358  51  0.87000
  629  857.669  51  0.87000
  630  857.981  51  0.87000
  631  858.292  51  0.87000
  632  858.604  51  0.87000
  633  858.917  51  0.87000
  634  859.229  51  0.87000
  635  859.542  51  0.87000
  636  859.855  51  0.87000
  637  860.168  51  0.87000
  638  860.482  51  0.87000
  639  860.795  51  0.87000
  640  861.109  51  0.87000
  641  861.424  51  0.87000
  642  861.738  51  0.87000
  643  862.053  51  0.87000
  644  862.368  51  0.87000
  645  862.683  51  0.87000
  646  862.998  51  0.87000
  647  863.314  51  0.87000
  648  863.630  51  0.87000
  649  863.946  51  0.87000
  650  864.263  51  0.87000
  651  864.579  51  0.87000
  652  864.896  51  0.87000
  653  865.214  51  0.87000
  654  865.531  51  0.87000
  655  865.849  51  0.87000
  656  866.167  51  0.87000
  657  866.485  51  0.87000
  658  866.803  51  0.87000
  659  867.122  51  0.87000
  660  867.441  51  0.87000
  661  867.760  51  0.87000
  662  868.080  51  0.87000
  663  868.399  51  0.87000
  664  868.719  51  0.87000
  665  869.040  51  0.87000
  666  869.360  51  0.87000
  667  869.681  51  0.87000
  668  870.002  51  0.87000
  669  870.323  51  0.87000
  670  870.645  51  0.87000
  671  870.966  51  0.87000
  672  871.288  51  0.87000
  673  871.611  51  0.87000
  674  871.933  51  0.87000
  675  872.256  51  0.87000
  676  872.579  51  0.87000
  677  872.902  51  0.87000
  678  873.226  51  0.87000
  679  873.550  51  0.87000
  680  873.874  51  0.87000
  681  874.198  51  0.87000
  682  874.523  51  0.87000
  683  874.847  51  0.87000
  684  875.172  51  0.87000
  685  875.498  51  0.87000
  686  875.823  51  0.87000
  687  876.149  51  0.87000
  688  876.475  51  0.87000
  689  876.802  51  0.87000
  690  877.128  51  0.87000
  691  877.455  51  0.87000
  692  877.783  51  0.87000
  693  878.110  51  0.87000
  694  878.438  51  0.87000
  695  878.766  51  0.87000
  696  879.094  51  0.87000
  697  879.422  51  0.87000
  698  879.751  51  0.87000
  699  880.080  51  0.87000
  700  880.409  51  0.87000
  701  880.739  51  0.87000
  702  881.069  51  0.87000
  703  881.399  51  0.87000
  704  881.729  51  0.87000
  705  882.060  51  0.87000
  706  882.390  51  0.87000
  707  882.721  51  0.87000
  708  883.053  51  0.87000
  709  883.384  51  0.87000
  710  883.716  51  0.87000
  711  884.049  51  0.87000
  712  884.381  51  0.87000
  713  884.714  51  0.87000
  714  885.047  51  0.87000
  715  885.380  51  0.87000
  716  885.713  51  0.87000
  717  886.047  51  0.87000
  718  886.381  51  0.87000
  719  886.715  51  0.87000
  720  887.050  51  0.87000
  721  887.385  51  0.87000
  722  887.720  51  0.87000
  723  888.055  51  0.87000
  724  888.391  51  0.87000
  725  888.727  51  0.87000
  726  889.063  51  0.87000
  727  889.399  51  0.87000
  728  889.736  51  0.87000
  729  890.073  51  0.87000
  730  890.410  51  0.87000
  731  890.748  51  0.87000
  732  891.086  51  0.87000
  733  891.424  51  0.87000
  734  891.762  51  0.87000
  735  892.101  51  0.87000
  736  892.440  51  0.87000
  737  892.779  51  0.87000
  738  893.118  51  0.87000
  739  893.458  51  0.87000
  740  893.798  51  0.87000
  741  894.138  51  0.87000
  742  894.479  51  0.87000
  743  894.820  51  0.87000
  744  895.161  51  0.87000
  745  895.502  51  0.87000
  746  895.844  51  0.87000
  747  896.185  51  0.87000
  748  896.528  51  0.87000
  749  896.870  51  0.87000
  750  897.213  51  0.87000
  751  897.556  51  0.87000
  752  897.899  51  0.87000
  753  898.243  51  0.87000
  754  898.586  51  0.87000
  755  898.931  51  0.87000
  756  899.275  51  0.87000
  757  899.620  51  0.87000
  758  899.965  51  0.87000
  759  900.310  51  0.87000
  760  900.655  51  0.87000
  761  901.001  51  0.87000
  762  901.347  51  0.87000
  763  901.694  51  0.87000
  764  902.040  51  0.87000
  765  902.387  51  0.87000
  766  902.734  51  0.87000
  767  903.082  51  0.87000
  768  903.429  51  0.87000
  769  903.778  51  0.87000
  770  911.235  51  0.87000
  771  911.590  51  0.87000
  772  911.945  51  0.87000
  773  912.301  51  0.87000
  774  912.656  51  0.87000
  775  913.012  51  0.87000
  776  913.369  51  0.87000
  777  913.725  51  0.87000
  778  914.082  51  0.87000
  779  914.439  51  0.87000
  780  914.796  51  0.87000
  781  915.154  51  0.87000
  782  915.512  51  0.87000
  783  915.870  51  0.87000
  784  916.229  51  0.87000
  785  916.588  51  0.87000
  786  916.947  51  0.87000
  787  917.306  51  0.87000
  788  917.666  51  0.87000
  789  918.026  51  0.87000
  790  918.386  51  0.87000
  791  918.747  51  0.87000
  792  919.108  51  0.87000
  793  919.469  51  0.87000
  794  919.830  51  0.87000
  795  920.192  51  0.87000
  796  920.554  51  0.87000
  797  920.917  51  0.87000
  798  921.279  51  0.87000
  799  921.642  51  0.87000
  800  922.005  51  0.87000
  801  922.369  51  0.87000
  802  922.733  51  0.87000
  803  923.097  51  0.87000
  804  923.461  51  0.87000
  805  923.826  51  0.87000
  806  924.191  51  0.87000
  807  924.556  51  0.87000
  808  924.922  51  0.87000
  809  925.288  51  0.87000
  810  925.654  51  0.87000
  811  926.021  51  0.87000
  812  926.387  51  0.87000
  813  926.754  51  0.87000
  814  927.122  51  0.87000
  815  927.490  51  0.87000
  816  927.858  51  0.87000
  817  928.226  51  0.87000
  818  928.594  51  0.87000
  819  928.963  51  0.87000
  820  929.333  51  0.87000
  821  929.702  51  0.87000
  822  930.072  51  0.87000
  823  930.442  51  0.87000
  824  930.812  51  0.87000
  825  931.183  51  0.87000
  826  931.554  51  0.87000
  827  931.925  51  0.87000
  828  932.297  51  0.87000
  829  932.669  51  0.87000
  830  933.041  51  0.87000
  831  933.414  51  0.87000
  832  933.787  51  0.87000
  833  934.160  51  0.87000
  834  934.533  51  0.87000
  835  934.907  51  0.87000
  836  935.281  51  0.87000
  837  935.655  51  0.87000
  838  936.030  51  0.87000
  839  936.405  51  0.87000
  840  936.780  51  0.87000
  841  937.156  51  0.87000
  842  937.532  51  0.87000
  843  937.908  51  0.87000
  844  938.285  51  0.87000
  845  938.662  51  0.87000
  846  939.039  51  0.87000
  847  939.416  51  0.87000
  848  939.794  51  0.87000
  849  940.172  51  0.87000
  850  940.550  51  0.87000
  851  940.929  51  0.87000
  852  941.308  51  0.87000
  853  941.688  51  0.87000
  854  942.067  51  0.87000
  855  942.447  51  0.87000
  856  942.827  51  0.87000
  857  943.208  51  0.87000
  858  943.589  51  0.87000
  859  943.970  51  0.87000
  860  944.352  51  0.87000
  861  944.734  51  0.87000
  862  945.116  51  0.87000
  863  945.498  51  0.87000
  864  945.881  51  0.87000
  865  946.264  51  0.87000
  866  946.647  51  0.87000
  867  947.031  51  0.87000
  868  947.415  51  0.87000
  869  947.800  51  0.87000
  870  948.184  51  0.87000
  871  948.569  51  0.87000
  872  948.955  51  0.87000
  873  949.340  51  0.87000
  874  949.726  51  0.87000
  875  950.113  51  0.87000
  876  950.499  51  0.87000
  877  950.886  51  0.87000
  878  951.273  51  0.87000
  879  951.661  51  0.87000
  880  952.049  51  0.87000
  881  952.437  51  0.87000
  882  952.826  51  0.87000
  883  953.214  51  0.87000
  884  953.604  51  0.87000
  885  953.993  51  0.87000
  886  954.383  51  0.87000
  887  954.773  51  0.87000
  888  955.163  51  0.87000
  889  955.554  51  0.87000
  890  955.945  51  0.87000
  891  956.337  51  0.87000
  892  956.729  51  0.87000
  893  957.121  51  0.87000
  894  957.513  51  0.87000
  895  957.906  51  0.87000
  896  958.299  51  0.87000
  897  958.692  51  0.87000
  898  959.086  51  0.87000
  899  959.480  51  0.87000
  900  959.874  51  0.87000
  901  960.269  51  0.87000
  902  960.664  51  0.87000
  903  961.060  51  0.87000
  904  961.455  51  0.87000
  905  961.851  51  0.87000
  906  962.248  51  0.87000
  907  962.644  51  0.87000
  908  963.041  51  0.87000
  909  963.439  51  0.87000
  910  963.836  51  0.87000
  911  964.234  51  0.87000
  912  964.633  51  0.87000
  913  965.031  51  0.87000
  914  965.430  51  0.87000
  915  965.830  51  0.87000
  916  966.229  51  0.87000
  917  966.630  51  0.87000
  918  967.030  51  0.87000
  919  967.431  51  0.87000
  920  967.832  51  0.87000
  921  968.233  51  0.87000
  922  968.635  51  0.87000
  923  969.037  51  0.87000
  924  969.439  51  0.87000
  925  969.842  51  0.87000
  926  970.245  51  0.87000
  927  970.648  51  0.87000
  928  971.052  51  0.87000
  929  971.456  51  0.87000
  930  971.860  51  0.87000
  931  972.265  51  0.87000
  932  972.670  51  0.87000
  933  973.076  51  0.87000
  934  973.481  51  0.87000
  935  973.887  51  0.87000
  936  974.294  51  0.87000
  937  973.818  51  0.87000
  938  974.225  51  0.87000
  939  974.631  51  0.87000
  940  975.039  51  0.87000
  941  975.446  51  0.87000
  942  975.854  51  0.87000
  943  976.262  51  0.87000
  944  976.670  51  0.87000
  945  977.079  51  0.87000
  946  977.488  51  0.87000
  947  977.898  51  0.87000
  948  978.308  51  0.87000
  949  978.718  51  0.87000
  950  979.128  51  0.87000
  951  979.539  51  0.87000
  952  979.950  51  0.87000
  953  980.362  51  0.87000
  954  980.774  51  0.86650
  955  981.186  51  0.86300
  956  981.599  51  0.85950
  957  982.011  51  0.85600
  958  982.425  51  0.85250
  959  982.838  51  0.84900
  960  983.252  51  0.84550
  961  983.667  51  0.84200
  962  984.081  51  0.83850
  963  984.496  51  0.83500
  964  984.912  51  0.83150
  965  985.327  51  0.82800
  966  985.743  51  0.82450
  967  986.160  51  0.82100
  968  986.576  51  0.81750
  969  986.993  51  0.81400
  970  987.411  51  0.81050
  971  987.829  51  0.80700
  972  988.247  51  0.80350
  973  988.665  51  0.80000
  974  989.084  51  0.80000
  975  989.503  55  1.00000
  976  989.923  55  1.00000
  977  990.343  55  1.00000
  978  990.763  55  1.00000
  979  991.183  55  1.00000
  980  991.604  55  1.00000
  981  992.026  55  1.00000
  982  992.447  55  1.00000
  983  992.869  55  1.00000
  984  993.292  55  1.00000
  985  993.714  55  1.00000
  986  994.137  55  1.00000
  987  994.561  55  1.00000
  988  994.984  55  1.00000
  989  995.409  55  1.00000
  990  995.833  55  1.00000
  991  996.258  55  1.00000
  992  996.683  55  1.00000
  993  997.109  55  1.00000
  994  997.535  55  1.00000
  995  997.961  55  1.00000
  996  998.388  55  1.00000
  997  998.814  55  1.00000
  998  999.242  55  1.00000
  999  999.669  55  1.00000
 1000 1000.098  55  1.00000
 1001 1000.526  55  1.00000
 1002 1000.955  55  1.00000
 1003 1001.384  55  1.00000
 1004 1001.813  55  1.00000
 1005 1002.243  55  1.00000
 1006 1002.674  55  1.00000
 1007 1003.104  55  1.00000
 1008 1003.535  55  1.00000
 1009 1003.966  55  1.00000
 1010 1004.398  55  1.00000
 1011 1004.830  55  1.00000
 1012 1005.263  55  1.00000
 1013 1005.695  55  1.00000
 1014 1006.129  55  1.00000
 1015 1006.562  55  1.00000
 1016 1006.996  55  1.00000
 1017 1007.430  55  1.00000
 1018 1007.865  55  1.00000
 1019 1008.300  55  1.00000
 1020 1008.735  55  1.00000
 1021 1009.171  55  1.00000
 1022 1009.607  55  1.00000
 1023 1010.044  55  1.00000
 1024 1010.480  55  1.00000
 1025 1010.918  55  1.00000
 1026 1011.355  55  1.00000
 1027 1011.793  55  1.00000
 1028 1012.231  55  1.00000
 1029 1012.670  55  1.00000
 1030 1013.109  55  1.00000
 1031 1013.549  55  1.00000
 1032 1013.988  55  1.00000
 1033 1014.429  55  1.00000
 1034 1014.869  55  1.00000
 1035 1015.310  55  1.00000
 1036 1015.751  55  1.00000
 1037 1016.193  55  1.00000
 1038 1016.635  55  1.00000
 1039 1017.078  55  1.00000
 1040 1017.520  55  1.00000
 1041 1017.964  55  1.00000
 1042 1018.407  55  1.00000
 1043 1018.851  55  1.00000
 1044 1019.296  55  1.00000
 1045 1019.740  55  1.00000
 1046 1020.185  55  1.00000
 1047 1020.631  55  1.00000
 1048 1021.077  55  1.00000
 1049 1021.523  55  1.00000
 1050 1021.969  55  1.00000
 1051 1022.416  55  1.00000
 1052 1022.864  55  1.00000
 1053 1023.312  55  1.00000
 1054 1023.760  55  1.00000
 1055 1024.208  55  1.00000
 1056 1024.657  55  1.00000
 1057 1025.106  55  1.00000
 1058 1025.556  55  1.00000
 1059 1026.006  55  1.00000
 1060 1026.457  55  1.00000
 1061 1026.907  55  1.00000
 1062 1027.359  55  1.00000
 1063 1027.810  55  1.00000
 1064 1028.262  55  1.00000
 1065 1028.714  55  1.00000
 1066 1029.167  55  1.00000
 1067 1029.620  55  1.00000
 1068 1030.074  55  1.00000
 1069 1030.528  55  1.00000
 1070 1030.982  55  1.00000
 1071 1031.437  55  1.00000
 1072 1031.892  55  1.00000
 1073 1032.348  55  1.00000
 1074 1032.803  55  1.00000
 1075 1033.260  55  1.00000
 1076 1033.716  55  1.00000
 1077 1034.173  55  1.00000
 1078 1034.631  55  1.00000
 1079 1035.089  55  1.00000
 1080 1035.547  55  1.00000
 1081 1036.005  55  1.00000
 1082 1036.464  55  1.00000
 1083 1036.924  55  1.00000
 1084 1037.384  55  1.00000
 1085 1037.844  55  1.00000
 1086 1038.305  55  1.00000
 1087 1038.766  55  1.00000
 1088 1039.227  55  1.00000
 1089 1039.689  55  1.00000
 1090 1040.151  55  1.00000
 1091 1040.614  55  1.00000
 1092 1041.077  55  1.00000
 1093 1041.540  55  1.00000
 1094 1042.004  55  1.00000
 1095 1042.468  55  1.00000
 1096 1042.932  55  1.00000
 1097 1043.397  55  1.00000
 1098 1043.863  55  1.00000
 1099 1044.329  55  1.00000
 1100 1044.795  55  1.00000
 1101 1045.261  55  1.00000
 1102 1045.729  55  1.00000
 1103 1046.196  55  1.00000
 1104 1056.104  55  1.00000
 1105 1056.580  55  1.00000
 1106 1057.056  55  1.00000
 1107 1057.533  55  1.00000
 1108 1058.010  55  1.00000
 1109 1058.487  55  1.00000
 1110 1058.965  55  1.00000
 1111 1059.443  55  1.00000
 1112 1059.922  55  1.00000
 1113 1060.401  55  1.00000
 1114 1060.881  55  1.00000
 1115 1061.361  55  1.00000
 1116 1061.841  55  1.00000
 1117 1062.322  55  1.00000
 1118 1062.803  55  1.00000
 1119 1063.285  55  1.00000
 1120 1063.767  55  1.00000
 1121 1064.249  55  1.00000
 1122 1064.732  55  1.00000
 1123 1065.215  55  1.00000
 1124 1065.699  55  1.00000
 1125 1066.183  55  1.00000
 1126 1066.668  55  1.00000
 1127 1067.153  55  1.00000
 1128 1067.638  55  1.00000
 1129 1068.124  55  1.00000
 1130 1068.610  55  1.00000
 1131 1069.097  55  1.00000
 1132 1069.584  55  1.00000
 1133 1070.071  55  1.00000
 1134 1070.559  55  1.00000
 1135 1071.047  55  1.00000
 1136 1071.536  55  1.00000
 1137 1072.025  55  1.00000
 1138 1072.515  55  1.00000
 1139 1073.005  55  1.00000
 1140 1073.495  55  1.00000
 1141 1073.986  55  1.00000
 1142 1074.477  55  1.00000
 1143 1074.969  55  1.00000
 1144 1075.461  55  1.00000
 1145 1075.954  55  1.00000
 1146 1076.447  55  1.00000
 1147 1076.940  55  1.00000
 1148 1077.434  55  1.00000
 1149 1077.928  55  1.00000
 1150 1078.423  55  1.00000
 1151 1078.918  55  1.00000
 1152 1079.414  55  1.00000
 1153 1079.910  55  1.00000
 1154 1080.406  55  1.00000
 1155 1080.903  55  1.00000
 1156 1081.400  55  1.00000
 1157 1081.898  55  1.00000
 1158 1082.396  55  1.00000
 1159 1082.895  55  1.00000
 1160 1083.394  55  1.00000
 1161 1083.893  55  1.00000
 1162 1084.393  55  1.00000
 1163 1084.893  55  1.00000
 1164 1085.394  55  1.00000
 1165 1085.895  55  1.00000
 1166 1086.397  55  1.00000
 1167 1086.899  55  1.00000
 1168 1087.401  55  1.00000
 1169 1087.904  55  1.00000
 1170 1088.408  55  1.00000
 1171 1088.912  55  1.00000
 1172 1089.416  55  1.00000
 1173 1089.921  55  1.00000
 1174 1090.426  55  1.00000
 1175 1090.931  55  1.00000
 1176 1091.437  55  1.00000
 1177 1091.944  55  1.00000
 1178 1092.451  55  1.00000
 1179 1092.958  55  1.00000
 1180 1093.466  55  1.00000
 1181 1093.974  55  1.00000
 1182 1094.483  55  1.00000
 1183 1094.992  55  1.00000
 1184 1095.501  55  1.00000
 1185 1096.011  55  1.00000
 1186 1096.522  55  1.00000
 1187 1097.033  55  1.00000
 1188 1097.544  55  1.00000
 1189 1098.056  55  1.00000
 1190 1098.568  55  1.00000
 1191 1099.081  55  1.00000
 1192 1099.594  55  1.00000
 1193 1100.108  55  1.00000
 1194 1100.622  55  1.00000
 1195 1101.136  55  1.00000
 1196 1101.651  55  1.00000
 1197 1102.167  55  1.00000
 1198 1102.683  55  1.00000
 1199 1103.199  55  1.00000
 1200 1103.716  55  1.00000
 1201 1104.233  55  1.00000
 1202 1104.751  55  1.00000
 1203 1105.269  55  1.00000
 1204 1105.788  55  1.00000
 1205 1106.307  55  1.00000
 1206 1106.826  55  1.00000
 1207 1107.346  55  1.00000
 1208 1107.867  55  1.00000
 1209 1108.388  55  1.00000
 1210 1108.909  55  1.00000
 1211 1109.431  55  1.00000
 1212 1109.953  55  1.00000
 1213 1110.476  55  1.00000
 1214 1110.999  55  1.00000
 1215 1111.523  55  1.00000
 1216 1112.047  55  1.00000
 1217 1112.571  55  1.00000
 1218 1113.096  55  1.00000
 1219 1113.622  55  1.00000
 1220 1114.148  55  1.00000
 1221 1114.674  55  1.00000
 1222 1115.201  55  1.00000
 1223 1115.729  55  1.00000
 1224 1116.257  55  1.00000
 1225 1116.785  55  1.00000
 1226 1117.314  55  1.00000
 1227 1117.843  55  1.00000
 1228 1118.373  55  1.00000
 1229 1118.903  55  1.00000
 1230 1119.433  55  1.00000
 1231 1119.965  55  1.00000
 1232 1120.496  55  1.00000
 1233 1121.028  55  1.00000
 1234 1121.561  55  1.00000
 1235 1122.094  55  1.00000
 1236 1122.627  55  1.00000
 1237 1123.161  55  1.00000
 1238 1123.696  55  1.00000
 1239 1124.231  55  1.00000
 1240 1124.766  55  1.00000
 1241 1125.302  55  1.00000
 1242 1125.839  55  1.00000
 1243 1126.375  55  1.00000
 1244 1126.913  55  1.00000
 1245 1127.450  55  1.00000
 1246 1127.989  55  1.00000
 1247 1128.527  55  1.00000
 1248 1129.067  55  1.00000
 1249 1129.606  55  1.00000
 1250 1130.147  55  1.00000
 1251 1130.687  55  1.00000
 1252 1131.228  55  1.00000
 1253 1131.770  55  1.00000
 1254 1132.312  55  1.00000
 1255 1132.855  55  1.00000
 1256 1133.398  55  1.00000
 1257 1133.942  55  1.00000
 1258 1134.486  55  1.00000
 1259 1135.030  55  1.00000
 1260 1135.575  55  1.00000
 1261 1136.121  55  1.00000
 1262 1136.667  55  1.00000
 1263 1216.974  55  1.00000
 1264 1217.481  55  1.00000
 1265 1217.988  55  1.00000
 1266 1218.496  55  1.00000
 1267 1219.004  55  1.00000
 1268 1219.513  55  1.00000
 1269 1220.022  55  1.00000
 1270 1220.531  55  1.00000
 1271 1221.041  55  1.00000
 1272 1221.552  55  1.00000
 1273 1222.062  55  1.00000
 1274 1222.574  55  1.00000
 1275 1223.085  55  1.00000
 1276 1223.597  55  1.00000
 1277 1224.110  55  1.00000
 1278 1224.623  55  1.00000
 1279 1225.136  55  1.00000
 1280 1225.650  55  1.00000
 1281 1226.164  55  1.00000
 1282 1226.679  55  1.00000
 1283 1227.194  55  1.00000
 1284 1227.709  55  1.00000
 1285 1228.225  55  1.00000
 1286 1228.742  55  1.00000
 1287 1229.258  55  1.00000
 1288 1229.776  55  1.00000
 1289 1230.293  55  1.00000
 1290 1230.811  55  1.00000
 1291 1231.330  55  1.00000
 1292 1231.849  55  1.00000
 1293 1232.368  55  1.00000
 1294 1232.888  55  1.00000
 1295 1233.408  55  1.00000
 1296 1233.929  55  1.00000
 1297 1234.450  55  1.00000
 1298 1234.971  55  1.00000
 1299 1235.493  55  1.00000
 1300 1236.016  55  1.00000
 1301 1236.538  55  1.00000
 1302 1237.062  55  1.00000
 1303 1237.585  55  1.00000
 1304 1238.110  55  1.00000
 1305 1238.634  55  1.00000
 1306 1239.159  55  1.00000
 1307 1239.685  55  1.00000
 1308 1240.211  55  1.00000
 1309 1240.737  55  1.00000
 1310 1241.264  55  1.00000
 1311 1241.791  55  1.00000
 1312 1242.319  55  1.00000
 1313 1242.847  55  1.00000
 1314 1243.375  55  1.00000
 1315 1243.904  55  1.00000
 1316 1244.434  55  1.00000
 1317 1244.964  55  1.00000
 1318 1245.494  55  1.00000
 1319 1246.025  55  1.00000
 1320 1246.556  55  1.00000
 1321 1247.088  55  1.00000
 1322 1247.620  55  1.00000
 1323 1248.152  55  1.00000
 1324 1248.685  55  1.00000
 1325 1249.219  55  1.00000
 1326 1249.753  55  1.00000
 1327 1250.287  55  1.00000
 1328 1250.822  55  1.00000
 1329 1251.357  55  1.00000
 1330 1251.893  55  1.00000
 1331 1252.429  55  1.00000
 1332 1252.965  55  1.00000
 1333 1253.503  55  1.00000
 1334 1254.040  55  1.00000
 1335 1254.578  55  1.00000
 1336 1255.116  55  1.00000
 1337 1255.655  55  1.00000
 1338 1256.195  55  1.00000
 1339 1256.734  55  1.00000
 1340 1257.275  55  1.00000
 1341 1257.815  55  1.00000
 1342 1258.357  55  1.00000
 1343 1258.898  55  1.00000
 1344 1259.440  55  1.00000
 1345 1259.983  55  1.00000
 1346 1260.526  55  1.00000
 1347 1261.069  55  1.00000
 1348 1261.613  55  1.00000
 1349 1262.157  55  1.00000
 1350 1262.702  55  1.00000
 1351 1263.247  55  1.00000
 1352 1263.793  55  1.00000
 1353 1264.339  55  1.00000
 1354 1264.886  55  1.00000
 1355 1265.433  55  1.00000
 1356 1265.981  55  1.00000
 1357 1266.529  55  1.00000
 1358 1267.077  55  1.00000
 1359 1267.626  55  1.00000
 1360 1268.176  55  1.00000
 1361 1268.726  55  1.00000
 1362 1269.276  55  1.00000
 1363 1269.827  55  1.00000
 1364 1270.378  55  1.00000
 1365 1270.930  55  1.00000
 1366 1271.482  55  1.00000
 1367 1272.035  55  1.00000
 1368 1272.588  55  1.00000
 1369 1284.348  55  1.00000
 1370 1284.911  55  1.00000
 1371 1285.475  55  1.00000
 1372 1286.039  55  1.00000
 1373 1286.604  55  1.00000
 1374 1287.169  55  1.00000
 1375 1287.735  55  1.00000
 1376 1288.301  55  1.00000
 1377 1288.868  55  1.00000
 1378 1289.435  55  1.00000
 1379 1290.003  55  1.00000
 1380 1290.571  55  1.00000
 1381 1291.140  55  1.00000
 1382 1291.709  55  1.00000
 1383 1292.278  55  1.00000
 1384 1292.848  55  1.00000
 1385 1293.419  55  1.00000
 1386 1293.990  55  1.00000
 1387 1294.561  55  1.00000
 1388 1295.133  55  1.00000
 1389 1295.706  55  1.00000
 1390 1296.279  55  1.00000
 1391 1296.853  55  1.00000
 1392 1297.427  55  1.00000
 1393 1298.001  55  1.00000
 1394 1298.576  55  1.00000
 1395 1299.151  55  1.00000
 1396 1299.727  55  1.00000
 1397 1300.304  55  1.00000
 1398 1300.881  55  1.00000
 1399 1301.458  55  1.00000
 1400 1302.036  55  1.00000
 1401 1302.615  55  1.00000
 1402 1303.194  55  1.00000
 1403 1303.773  55  1.00000
 1404 1304.353  55  1.00000
 1405 1304.934  55  1.00000
 1406 1305.515  55  1.00000
 1407 1306.096  55  1.00000
 1408 1306.678  55  1.00000
 1409 1307.260  55  1.00000
 1410 1307.843  55  1.00000
 1411 1308.427  55  1.00000
 1412 1309.011  55  1.00000
 1413 1309.595  55  1.00000
 1414 1310.180  55  1.00000
 1415 1310.766  55  1.00000
 1416 1311.352  55  1.00000
 1417 1311.938  55  1.00000
 1418 1312.525  55  1.00000
 1419 1313.113  55  1.00000
 1420 1313.701  55  1.00000
 1421 1314.289  55  1.00000
 1422 1314.878  55  1.00000
 1423 1315.468  55  1.00000
 1424 1316.058  55  1.00000
 1425 1316.648  55  1.00000
 1426 1317.239  55  1.00000
 1427 1317.831  55  1.00000
 1428 1318.423  55  1.00000
 1429 1319.016  55  1.00000
 1430 1319.609  55  1.00000
 1431 1320.202  55  1.00000
 1432 1320.797  55  1.00000
 1433 1321.391  55  1.00000
 1434 1321.986  55  1.00000
 1435 1322.582  55  1.00000
 1436 1323.178  55  1.00000
 1437 1323.775  55  1.00000
 1438 1324.372  55  1.00000
 1439 1324.970  55  1.00000
 1440 1325.568  55  1.00000
 1441 1326.167  51  0.80000
 1442 1326.766  51  0.80000
 1443 1327.366  55  1.00000
 1444 1327.967  55  1.00000
 1445 1328.568  55  1.00000
 1446 1329.169  55  1.00000
 1447 1329.771  55  1.00000
 1448 1330.373  55  1.00000
 1449 1330.976  55  1.00000
 1450 1331.580  51  0.80000
 1451 1332.184  51  0.80000
 1452 1332.788  55  1.00000
 1453 1333.393  55  1.00000
 1454 1333.999  51  0.80000
 1455 1334.605  51  0.80000
 1456 1335.212  51  0.80000
 1457 1335.819  51  0.80000
 1458 1336.427  51  0.80000
 1459 1337.035  55  1.00000
 1460 1337.644  55  1.00000
 1461 1338.253  55  1.00000
 1462 1338.863  55  1.00000
 1463 1338.161  55  1.00000
 1464 1338.669  55  1.00000
 1465 1339.178  55  1.00000
 1466 1339.687  55  1.00000
 1467 1340.196  55  1.00000
 1468 1340.706  55  1.00000
 1469 1341.216  55  1.00000
 1470 1341.727  55  1.00000
 1471 1342.238  55  1.00000
 1472 1342.749  55  1.00000
 1473 1343.261  55  1.00000
 1474 1343.773  51  0.80000
 1475 1344.286  51  0.80000
 1476 1344.799  51  0.80000
 1477 1345.312  51  0.80000
 1478 1345.826  51  0.80000
 1479 1346.340  55  1.00000
 1480 1346.855  55  1.00000
 1481 1347.370  55  1.00000
 1482 1347.886  55  1.00000
 1483 1348.402  55  1.00000
 1484 1348.918  55  1.00000
 1485 1349.435  55  1.00000
 1486 1349.952  55  1.00000
 1487 1350.469  55  1.00000
 1488 1350.987  51  0.80000
 1489 1351.506  51  0.80000
 1490 1352.025  51  0.80000
 1491 1352.544  55  1.00000
 1492 1353.063  55  1.00000
 1493 1353.583  55  1.00000
 1494 1354.104  55  1.00000
 1495 1354.625  55  1.00000
 1496 1355.146  55  1.00000
 1497 1355.668  55  1.00000
 1498 1356.190  55  1.00000
 1499 1356.713  55  1.00000
 1500 1357.236  55  1.00000
 1501 1357.759  55  1.00000
 1502 1358.283  55  1.00000
 1503 1358.807  55  1.00000
 1504 1359.332  55  1.00000
 1505 1359.857  55  1.00000
 1506 1360.383  55  1.00000
 1507 1360.909  55  1.00000
 1508 1361.435  55  1.00000
 1509 1361.962  55  1.00000
 1510 1362.489  55  1.00000
 1511 1363.017  55  1.00000
 1512 1363.545  51  0.80000
 1513 1364.073  51  0.80000
 1514 1364.602  51  0.80000
 1515 1365.131  55  1.00000
 1516 1365.661  55  1.00000
 1517 1366.192  55  1.00000
 1518 1366.722  55  1.00000
 1519 1367.253  55  1.00000
 1520 1367.785  55  1.00000
 1521 1368.317  55  1.00000
 1522 1368.849  55  1.00000
 1523 1369.382  55  1.00000
 1524 1369.915  55  1.00000
 1525 1370.449  55  1.00000
 1526 1370.983  55  1.00000
 1527 1371.517  55  1.00000
 1528 1372.052  55  1.00000
 1529 1372.588  55  1.00000
 1530 1373.123  55  1.00000
 1531 1373.660  51  1.00000
 1532 1374.196  51  1.00000
 1533 1374.733  51  1.00000
 1534 1375.271  51  1.00000
 1535 1375.809  51  1.00000
 1536 1376.347  51  1.00000
 1537 1376.886  51  1.00000
 1538 1377.425  55  1.00000
 1539 1377.965  55  1.00000
 1540 1378.505  55  1.00000
 1541 1379.046  55  1.00000
 1542 1379.587  55  1.00000
 1543 1380.128  55  1.00000
 1544 1380.670  55  1.00000
 1545 1381.213  55  1.00000
 1546 1381.756  55  1.00000
 1547 1382.299  55  1.00000
 1548 1382.843  55  1.00000
 1549 1383.387  55  1.00000
 1550 1383.931  55  1.00000
 1551 1384.476  55  1.00000
 1552 1385.022  55  1.00000
 1553 1385.568  55  1.00000
 1554 1386.114  55  1.00000
 1555 1386.661  55  1.00000
 1556 1387.208  55  1.00000
 1557 1387.756  55  1.00000
 1558 1388.304  55  1.00000
 1559 1388.852  55  1.00000
 1560 1389.401  55  1.00000
 1561 1389.951  55  1.00000
 1562 1390.501  55  1.00000
 1563 1391.051  55  1.00000
 1564 1391.602  55  1.00000
 1565 1392.153  55  1.00000
 1566 1392.705  55  1.00000
 1567 1393.257  55  1.00000
 1568 1393.810  55  1.00000
 1569 1394.363  55  1.00000
 1570 1394.916  55  1.00000
 1571 1395.470  55  1.00000
 1572 1396.025  55  1.00000
 1573 1396.579  55  1.00000
 1574 1397.135  55  1.00000
 1575 1397.691  55  1.00000
 1576 1398.247  55  1.00000
 1577 1398.803  55  1.00000
 1578 1399.361  55  1.00000
 1579 1399.918  55  1.00000
 1580 1400.476  55  1.00000
 1581 1401.035  55  1.00000
 1582 1401.594  55  1.00000
 1583 1402.153  55  1.00000
 1584 1402.713  55  1.00000
 1585 1403.273  55  1.00000
 1586 1403.834  55  1.00000
 1587 1404.396  55  1.00000
 1588 1404.957  55  1.00000
 1589 1405.519  55  1.00000
 1590 1406.082  55  1.00000
 1591 1406.645  55  1.00000
 1592 1407.209  55  1.00000
 1593 1407.773  55  1.00000
 1594 1408.337  55  1.00000
 1595 1408.902  55  1.00000
 1596 1409.468  55  1.00000
 1597 1410.034  55  1.00000
 1598 1410.600  55  1.00000
 1599 1411.167  55  1.00000
 1600 1411.734  55  1.00000
 1601 1412.302  55  1.00000
 1602 1412.870  55  1.00000
 1603 1413.439  55  1.00000
 1604 1414.008  55  1.00000
 1605 1414.578  55  1.00000
 1606 1415.148  55  1.00000
 1607 1415.718  55  1.00000
 1608 1416.289  55  1.00000
 1609 1416.861  55  1.00000
 1610 1417.433  55  1.00000
 1611 1418.005  55  1.00000
 1612 1418.578  55  1.00000
 1613 1419.151  55  1.00000
 1614 1419.725  55  1.00000
 1615 1420.300  55  1.00000
 1616 1420.875  55  1.00000
 1617 1421.450  55  1.00000
 1618 1422.026  55  1.00000
 1619 1422.602  55  1.00000
 1620 1423.178  55  1.00000
 1621 1423.756  55  1.00000
 1622 1424.333  55  1.00000
 1623 1424.911  55  1.00000
 1624 1425.490  55  1.00000
 1625 1426.069  55  1.00000
 1626 1426.649  55  1.00000
 1627 1427.229  55  1.00000
 1628 1427.809  55  1.00000
 1629 1428.390  55  1.00000
 1630 1428.972  55  1.00000
 1631 1429.554  55  1.00000
 1632 1430.136  55  1.00000
 1633 1430.719  55  1.00000
 1634 1431.303  55  1.00000
 1635 1431.887  55  1.00000
 1636 1432.471  55  1.00000
 1637 1433.056  55  1.00000
 1638 1433.641  55  1.00000
 1639 1434.227  55  1.00000
 1640 1434.814  55  1.00000
 1641 1435.400  55  1.00000
 1642 1435.988  55  1.00000
 1643 1436.576  55  1.00000
 1644 1437.164  55  1.00000
 1645 1437.753  55  1.00000
 1646 1438.342  55  1.00000
 1647 1438.932  55  1.00000
 1648 1439.522  55  1.00000
 1649 1440.113  55  1.00000
 1650 1440.704  55  1.00000
 1651 1441.296  55  1.00000
 1652 1441.888  55  1.00000
 1653 1442.481  55  1.00000
 1654 1443.074  55  1.00000
 1655 1460.265  55  1.00000
 1656 1460.873  51  0.80000
 1657 1461.482  51  0.80000
 1658 1462.091  51  0.80000
 1659 1462.701  51  0.80000
 1660 1463.311  55  1.00000
 1661 1463.922  55  1.00000
 1662 1464.533  55  1.00000
 1663 1465.145  55  1.00000
 1664 1465.758  55  1.00000
 1665 1466.371  51  0.80000
 1666 1466.984  51  0.80000
 1667 1467.598  51  0.80000
 1668 1468.212  51  0.80000
 1669 1468.827  51  0.80000
 1670 1469.443  51  0.80000
 1671 1470.059  51  0.80000
 1672 1470.675  55  1.00000
 1673 1471.292  55  1.00000
 1674 1471.910  55  1.00000
 1675 1472.528  55  1.00000
 1676 1473.146  55  1.00000
 1677 1473.765  55  1.00000
 1678 1474.385  55  1.00000
 1679 1475.005  55  1.00000
 1680 1475.625  55  1.00000
 1681 1476.246  55  1.00000
 1682 1476.868  55  1.00000
 1683 1477.490  51  0.80000
 1684 1478.113  51  0.80000
 1685 1478.736  51  0.80000
 1686 1479.360  51  0.80000
 1687 1479.984  51  0.80000
 1688 1480.609  51  0.80000
 1689 1481.234  55  1.00000
 1690 1481.860  55  1.00000
 1691 1482.486  51  0.80000
 1692 1483.113  51  0.80000
 1693 1483.741  51  0.80000
 1694 1484.369  51  0.80000
 1695 1484.997  51  0.80000
 1696 1485.626  55  1.00000
 1697 1486.255  55  1.00000
 1698 1486.885  55  1.00000
 1699 1487.516  55  1.00000
 1700 1488.147  55  1.00000
 1701 1488.779  55  1.00000
 1702 1489.411  55  1.00000
 1703 1490.044  55  1.00000
 1704 1490.677  55  1.00000
 1705 1491.311  55  1.00000
 1706 1491.945  55  1.00000
 1707 1492.580  55  1.00000
 1708 1493.215  55  1.00000
 1709 1493.851  55  1.00000
 1710 1494.487  55  1.00000
 1711 1495.124  55  1.00000
 1712 1495.762  55  1.00000
 1713 1496.400  55  1.00000
 1714 1497.038  55  1.00000
 1715 1497.677  55  1.00000
 1716 1498.317  55  1.00000
 1717 1498.957  55  1.00000
 1718 1499.598  55  1.00000
 1719 1500.239  55  1.00000
 1720 1500.881  55  1.00000
 1721 1501.523  55  1.00000
 1722 1502.166  55  1.00000
 1723 1502.810  55  1.00000
 1724 1503.454  55  1.00000
 1725 1504.098  55  1.00000
 1726 1504.743  55  1.00000
 1727 1505.389  55  1.00000
 1728 1506.035  55  1.00000
 1729 1506.682  55  1.00000
 1730 1507.329  55  1.00000
 1731 1507.977  55  1.00000
 1732 1508.625  55  1.00000
 1733 1509.274  55  1.00000
 1734 1509.923  55  1.00000
 1735 1510.573  55  1.00000
 1736 1511.224  55  1.00000
 1737 1511.875  55  1.00000
 1738 1512.527  55  1.00000
 1739 1513.179  55  1.00000
 1740 1513.832  55  1.00000
 1741 1514.485  55  1.00000
 1742 1515.139  55  1.00000
 1743 1515.793  55  1.00000
 1744 1516.448  55  1.00000
 1745 1517.104  55  1.00000
 1746 1517.760  55  1.00000
 1747 1518.417  55  1.00000
 1748 1519.074  55  1.00000
 1749 1519.732  55  1.00000
 1750 1520.390  55  1.00000
 1751 1521.049  55  1.00000
 1752 1521.708  55  1.00000
 1753 1522.368  55  1.00000
 1754 1523.029  55  1.00000
 1755 1523.690  55  1.00000
 1756 1524.352  55  1.00000
 1757 1525.014  55  1.00000
 1758 1525.677  55  1.00000
 1759 1526.340  55  1.00000
 1760 1527.004  55  1.00000
 1761 1541.096  55  1.00000
 1762 1541.772  55  1.00000
 1763 1542.449  55  1.00000
 1764 1543.126  55  1.00000
 1765 1543.803  55  1.00000
 1766 1544.482  55  1.00000
 1767 1545.161  55  1.00000
 1768 1545.840  55  1.00000
 1769 1546.520  55  1.00000
 1770 1547.200  55  1.00000
 1771 1547.881  55  1.00000
 1772 1548.563  55  1.00000
 1773 1549.245  55  1.00000
 1774 1549.928  55  1.00000
 1775 1550.612  55  1.00000
 1776 1551.296  55  1.00000
 1777 1551.980  55  1.00000
 1778 1552.666  55  1.00000
 1779 1553.351  55  1.00000
 1780 1554.038  55  1.00000
 1781 1554.725  55  1.00000
 1782 1555.412  55  1.00000
 1783 1556.100  55  1.00000
 1784 1556.789  55  1.00000
 1785 1557.479  55  1.00000
 1786 1558.168  55  1.00000
 1787 1558.859  55  1.00000
 1788 1559.550  55  1.00000
 1789 1560.242  55  1.00000
 1790 1560.934  55  1.00000
 1791 1561.627  55  1.00000
 1792 1562.320  55  1.00000
 1793 1563.015  55  1.00000
 1794 1563.709  55  1.00000
 1795 1564.404  55  1.00000
 1796 1565.100  55  1.00000
 1797 1565.797  55  1.00000
 1798 1566.494  55  1.00000
 1799 1567.192  55  1.00000
 1800 1567.890  55  1.00000
 1801 1568.589  55  1.00000
 1802 1569.288  55  1.00000
 1803 1569.988  55  1.00000
 1804 1570.689  55  1.00000
 1805 1571.390  55  1.00000
 1806 1572.092  55  1.00000
 1807 1572.795  55  1.00000
 1808 1573.498  55  1.00000
 1809 1574.201  55  1.00000
 1810 1574.906  55  1.00000
 1811 1575.611  55  1.00000
 1812 1576.316  55  1.00000
 1813 1577.022  55  1.00000
 1814 1577.729  55  1.00000
 1815 1578.437  55  1.00000
 1816 1579.145  55  1.00000
 1817 1579.853  55  1.00000
 1818 1580.562  55  1.00000
 1819 1581.272  55  1.00000
 1820 1581.983  55  1.00000
 1821 1582.694  55  1.00000
 1822 1583.405  55  1.00000
 1823 1584.118  55  1.00000
 1824 1584.831  55  1.00000
 1825 1585.544  55  1.00000
 1826 1586.258  55  1.00000
 1827 1586.973  55  1.00000
 1828 1587.688  55  1.00000
 1829 1588.404  55  1.00000
 1830 1589.121  55  1.00000
 1831 1589.838  55  1.00000
 1832 1590.556  55  1.00000
 1833 1591.275  55  1.00000
 1834 1591.994  55  1.00000
 1835 1592.714  55  1.00000
 1836 1593.434  55  1.00000
 1837 1594.155  55  1.00000
 1838 1594.877  55  1.00000
 1839 1595.599  55  1.00000
 1840 1596.322  55  1.00000
 1841 1597.045  55  1.00000
 1842 1597.770  55  1.00000
 1843 1598.494  55  1.00000
 1844 1599.220  55  1.00000
 1845 1599.946  55  1.00000
 1846 1600.672  55  1.00000
 1847 1601.400  55  1.00000
 1848 1602.128  55  1.00000
 1849 1602.856  55  1.00000
 1850 1603.585  55  1.00000
 1851 1604.315  55  1.00000
 1852 1605.046  55  1.00000
 1853 1605.777  55  1.00000
 1854 1606.509  55  1.00000
 1855 1607.241  55  1.00000
 1856 1607.974  55  1.00000
 1857 1608.708  55  1.00000
 1858 1609.442  55  1.00000
 1859 1610.177  55  1.00000
 1860 1610.913  55  1.00000
 1861 1611.649  55  1.00000
 1862 1612.386  55  1.00000
 1863 1613.124  55  1.00000
 1864 1613.862  55  1.00000
 1865 2181.494  55  1.00000
 1866 2182.400  55  1.00000
 1867 2183.306  55  1.00000
 1868 2184.213  55  1.00000
 1869 2185.121  55  1.00000
 1870 2186.030  55  1.00000
 1871 2186.939  55  1.00000
 1872 2187.850  55  1.00000
 1873 2188.760  55  1.00000
 1874 2189.672  55  1.00000
 1875 2190.584  55  1.00000
 1876 2191.498  55  1.00000
 1877 2192.412  55  1.00000
 1878 2193.326  55  1.00000
 1879 2194.242  55  1.00000
 1880 2195.158  55  1.00000
 1881 2196.075  55  1.00000
 1882 2196.992  55  1.00000
 1883 2197.911  55  1.00000
 1884 2198.830  55  1.00000
 1885 2199.750  55  1.00000
 1886 2200.671  55  1.00000
 1887 2201.592  55  1.00000
 1888 2202.514  55  1.00000
 1889 2203.437  55  1.00000
 1890 2204.361  55  1.00000
 1891 2205.285  55  1.00000
 1892 2206.210  55  1.00000
 1893 2207.136  55  1.00000
 1894 2208.063  55  1.00000
 1895 2208.991  55  1.00000
 1896 2209.919  55  1.00000
 1897 2210.848  55  1.00000
 1898 2211.778  55  1.00000
 1899 2212.708  55  1.00000
 1900 2213.640  55  1.00000
 1901 2214.572  55  1.00000
 1902 2215.505  55  1.00000
 1903 2216.438  55  1.00000
 1904 2217.373  55  1.00000
 1905 2218.308  55  1.00000
 1906 2219.244  55  1.00000
 1907 2220.181  55  1.00000
 1908 2221.118  55  1.00000
 1909 2222.057  55  1.00000
 1910 2222.996  55  1.00000
 1911 2223.936  55  1.00000
 1912 2224.876  55  1.00000
 1913 2225.818  55  1.00000
 1914 2226.760  55  1.00000
 1915 2227.703  55  1.00000
 1916 2228.646  55  1.00000
 1917 2229.591  55  1.00000
 1918 2230.536  55  1.00000
 1919 2231.482  55  1.00000
 1920 2232.429  55  1.00000
 1921 2233.377  55  1.00000
 1922 2234.325  55  1.00000
 1923 2235.275  55  1.00000
 1924 2236.225  55  1.00000
 1925 2237.176  55  1.00000
 1926 2238.127  55  1.00000
 1927 2239.080  55  1.00000
 1928 2240.033  55  1.00000
 1929 2240.987  55  1.00000
 1930 2241.942  55  1.00000
 1931 2242.897  55  1.00000
 1932 2243.854  55  1.00000
 1933 2244.811  55  1.00000
 1934 2245.769  55  1.00000
 1935 2246.727  55  1.00000
 1936 2247.687  55  1.00000
 1937 2248.647  55  1.00000
 1938 2249.608  55  1.00000
 1939 2250.570  55  1.00000
 1940 2251.533  55  1.00000
 1941 2252.497  55  1.00000
 1942 2253.461  55  1.00000
 1943 2254.426  55  1.00000
 1944 2255.392  55  1.00000
 1945 2256.359  55  1.00000
 1946 2257.326  55  1.00000
 1947 2258.295  55  1.00000
 1948 2259.264  55  1.00000
 1949 2260.234  55  1.00000
 1950 2261.205  55  1.00000
 1951 2262.176  55  1.00000
 1952 2263.149  55  1.00000
 1953 2264.122  55  1.00000
 1954 2265.096  55  1.00000
 1955 2266.071  55  1.00000
 1956 2267.047  55  1.00000
 1957 2268.023  55  1.00000
 1958 2269.000  55  1.00000
 1959 2269.979  55  1.00000
 1960 2270.958  55  1.00000
 1961 2271.937  55  1.00000
 1962 2272.918  55  1.00000
 1963 2273.899  55  1.00000
 1964 2274.882  55  1.00000
 1965 2275.865  55  1.00000
 1966 2276.848  55  1.00000
 1967 2277.833  55  1.00000
 1968 2278.819  55  1.00000
 1969 2279.805  55  1.00000
 1970 2280.792  55  1.00000
 1971 2281.780  55  1.00000
 1972 2282.769  55  1.00000
 1973 2283.759  55  1.00000
 1974 2284.749  55  1.00000
 1975 2285.741  55  1.00000
 1976 2286.733  55  1.00000
 1977 2287.726  55  1.00000
 1978 2288.720  55  1.00000
 1979 2289.714  55  1.00000
 1980 2290.710  55  1.00000
 1981 2291.706  55  1.00000
 1982 2292.703  55  1.00000
 1983 2293.701  55  1.00000
 1984 2294.700  55  1.00000
 1985 2295.700  55  1.00000
 1986 2296.701  55  1.00000
 1987 2297.702  55  1.00000
 1988 2298.704  55  1.00000
 1989 2299.707  55  1.00000
 1990 2300.711  55  1.00000
 1991 2301.716  55  1.00000
 1992 2302.722  55  1.00000
 1993 2303.728  55  1.00000
 1994 2304.735  55  1.00000
 1995 2305.744  55  1.00000
 1996 2306.753  55  1.00000
 1997 2307.762  55  1.00000
 1998 2308.773  55  1.00000
 1999 2309.785  55  1.00000
 2000 2310.797  55  1.00000
 2001 2311.811  55  1.00000
 2002 2312.825  55  1.00000
 2003 2313.840  55  1.00000
 2004 2314.856  55  1.00000
 2005 2315.872  55  1.00000
 2006 2316.890  55  1.00000
 2007 2317.908  55  1.00000
 2008 2318.928  55  1.00000
 2009 2319.948  55  1.00000
 2010 2320.969  55  1.00000
 2011 2321.991  55  1.00000
 2012 2323.014  55  1.00000
 2013 2324.037  55  1.00000
 2014 2325.062  55  1.00000
 2015 2299.798  55  1.00000
 2016 2300.703  55  1.00000
 2017 2301.608  55  1.00000
 2018 2302.514  55  1.00000
 2019 2303.421  55  1.00000
 2020 2304.329  55  1.00000
 2021 2305.237  55  1.00000
 2022 2306.146  55  1.00000
 2023 2307.056  55  1.00000
 2024 2307.966  55  1.00000
 2025 2308.877  55  1.00000
 2026 2309.789  55  1.00000
 2027 2310.702  55  1.00000
 2028 2311.615  55  1.00000
 2029 2312.530  55  1.00000
 2030 2313.445  55  1.00000
 2031 2314.361  55  1.00000
 2032 2315.277  55  1.00000
 2033 2316.194  55  1.00000
 2034 2317.112  55  1.00000
 2035 2318.031  55  1.00000
 2036 2318.950  55  1.00000
 2037 2319.871  55  1.00000
 2038 2320.792  55  1.00000
 2039 2321.713  55  1.00000
 2040 2322.636  55  1.00000
 2041 2323.559  55  1.00000
 2042 2324.483  55  1.00000
 2043 2325.408  55  1.00000
 2044 2326.333  55  1.00000
 2045 2327.260  55  1.00000
 2046 2328.187  55  1.00000
 2047 2329.114  55  1.00000
 2048 2330.043  55  1.00000
 2049 2330.972  55  1.00000
 2050 2331.902  55  1.00000
 2051 2332.833  55  1.00000
 2052 2333.765  55  1.00000
 2053 2334.697  55  1.00000
 2054 2335.630  55  1.00000
 2055 2336.564  55  1.00000
 2056 2337.499  55  1.00000
 2057 2338.434  55  1.00000
 2058 2339.370  55  1.00000
 2059 2340.307  55  1.00000
 2060 2341.245  55  1.00000
 2061 2342.183  55  1.00000
 2062 2343.123  55  1.00000
 2063 2344.063  55  1.00000
 2064 2345.003  55  1.00000
 2065 2345.945  55  1.00000
 2066 2346.887  55  1.00000
 2067 2347.831  55  1.00000
 2068 2348.774  55  1.00000
 2069 2349.719  55  1.00000
 2070 2350.665  55  1.00000
 2071 2351.611  55  1.00000
 2072 2352.558  55  1.00000
 2073 2353.506  55  1.00000
 2074 2354.454  55  1.00000
 2075 2355.404  55  1.00000
 2076 2356.354  55  1.00000
 2077 2357.305  55  1.00000
 2078 2358.257  55  1.00000
 2079 2359.209  55  1.00000
 2080 2360.162  55  1.00000
 2081 2361.116  55  1.00000
 2082 2362.071  55  1.00000
 2083 2363.027  55  1.00000
 2084 2363.983  55  1.00000
 2085 2364.941  55  1.00000
 2086 2365.899  55  1.00000
 2087 2366.857  55  1.00000
 2088 2367.817  55  1.00000
 2089 2368.778  55  1.00000
 2090 2369.739  55  1.00000
 2091 2370.701  55  1.00000
 2092 2371.664  55  1.00000
 2093 2372.627  55  1.00000
 2094 2373.592  55  1.00000
 2095 2374.557  55  1.00000
 2096 2375.523  55  1.00000
 2097 2376.490  55  1.00000
 2098 2377.457  55  1.00000
 2099 2378.426  55  1.00000
 2100 2379.395  55  1.00000
 2101 2380.365  55  1.00000
 2102 2381.335  55  1.00000
 2103 2382.307  55  1.00000
 2104 2383.280  55  1.00000
 2105 2384.253  55  1.00000
 2106 2385.227  55  1.00000
 2107 2386.202  55  1.00000
 2108 2387.177  55  1.00000
 2109 2388.154  55  1.00000
 2110 2389.131  55  1.00000
 2111 2390.109  55  1.00000
 2112 2391.088  55  1.00000
 2113 2392.068  55  1.00000
 2114 2393.048  55  1.00000
 2115 2394.030  55  1.00000
 2116 2395.012  55  1.00000
 2117 2395.995  55  1.00000
 2118 2396.979  55  1.00000
 2119 2397.963  55  1.00000
 2120 2398.949  55  1.00000
 2121 2399.935  55  1.00000
 2122 2400.922  55  1.00000
 2123 2401.910  55  1.00000
 2124 2402.899  55  1.00000
 2125 2403.888  55  1.00000
 2126 2404.879  55  1.00000
 2127 2405.870  55  1.00000
 2128 2406.862  55  1.00000
 2129 2407.855  55  1.00000
 2130 2408.849  55  1.00000
 2131 2409.843  55  1.00000
 2132 2410.839  55  1.00000
 2133 2411.835  55  1.00000
 2134 2412.832  55  1.00000
 2135 2413.830  55  1.00000
 2136 2414.828  55  1.00000
 2137 2415.828  55  1.00000
 2138 2416.828  55  1.00000
 2139 2417.830  55  1.00000
 2140 2418.832  55  1.00000
 2141 2419.834  55  1.00000
 2142 2420.838  55  1.00000
 2143 2421.843  55  1.00000
 2144 2422.848  55  1.00000
 2145 2446.194  55  1.00000
 2146 2447.219  55  1.00000
 2147 2448.244  55  1.00000
 2148 2449.270  55  1.00000
 2149 2450.297  55  1.00000
 2150 2451.325  55  1.00000
 2151 2452.354  55  1.00000
 2152 2453.383  55  1.00000
 2153 2454.414  55  1.00000
 2154 2455.445  55  1.00000
 2155 2456.477  55  1.00000
 2156 2457.510  55  1.00000
 2157 2458.544  55  1.00000
 2158 2459.578  55  1.00000
 2159 2460.614  55  1.00000
 2160 2461.650  55  1.00000
 2161 2462.687  55  1.00000
 2162 2463.725  55  1.00000
 2163 2464.764  55  1.00000
 2164 2465.804  55  1.00000
 2165 2466.844  55  1.00000
 2166 2467.886  55  1.00000
 2167 2468.928  55  1.00000
 2168 2469.971  55  1.00000
 2169 2471.015  55  1.00000
 2170 2472.060  55  1.00000
 2171 2473.106  55  1.00000
 2172 2474.153  55  1.00000
 2173 2475.200  55  1.00000
 2174 2476.249  55  1.00000
 2175 2477.298  55  1.00000
 2176 2478.348  55  1.00000
 2177 2479.399  55  1.00000
 2178 2480.451  55  1.00000
 2179 2481.503  55  1.00000
 2180 2482.557  55  1.00000
 2181 2483.611  55  1.00000
 2182 2484.667  55  1.00000
 2183 2485.723  55  1.00000
 2184 2486.780  55  1.00000
 2185 2487.838  55  1.00000
 2186 2488.896  55  1.00000
 2187 2489.956  55  1.00000
 2188 2491.017  55  1.00000
 2189 2492.078  55  1.00000
 2190 2493.141  55  1.00000
 2191 2494.204  55  1.00000
 2192 2495.268  55  1.00000
 2193 2496.333  55  1.00000
 2194 2497.399  55  1.00000
 2195 2498.465  55  1.00000
 2196 2499.533  55  1.00000
 2197 2500.602  55  1.00000
 2198 2501.671  55  1.00000
 2199 2502.741  55  1.00000
 2200 2503.812  55  1.00000
 2201 2504.884  55  1.00000
 2202 2505.957  55  1.00000
 2203 2507.031  55  1.00000
 2204 2508.106  55  1.00000
 2205 2509.182  55  1.00000
 2206 2510.258  55  1.00000
 2207 2511.335  55  1.00000
 2208 2512.414  55  1.00000
 2209 2513.493  55  1.00000
 2210 2514.573  55  1.00000
 2211 2515.654  55  1.00000
 2212 2516.736  55  1.00000
 2213 2517.819  55  1.00000
 2214 2518.903  55  1.00000
 2215 2519.987  55  1.00000
 2216 2521.073  55  1.00000
 2217 2522.159  55  1.00000
 2218 2523.247  55  1.00000
 2219 2524.335  55  1.00000
 2220 2525.424  55  1.00000
 2221 2526.514  55  1.00000
 2222 2527.605  55  1.00000
 2223 2528.697  55  1.00000
 2224 2529.790  55  1.00000
 2225 2530.883  55  1.00000
 2226 2531.978  55  1.00000
 2227 2533.073  55  1.00000
 2228 2534.170  55  1.00000
 2229 2535.267  55  1.00000
 2230 2536.366  55  1.00000
 2231 2537.465  55  1.00000
 2232 2538.565  55  1.00000
 2233 2539.666  55  1.00000
 2234 2540.768  55  1.00000
 2235 2541.871  55  1.00000
 2236 2542.975  55  1.00000
 2237 2544.080  55  1.00000
 2238 2545.185  55  1.00000
 2239 2546.292  55  1.00000
 2240 2547.399  55  1.00000
 2241 2548.508  55  1.00000
 2242 2549.617  55  1.00000
 2243 2550.728  55  1.00000
 2244 2551.839  55  1.00000
 2245 2552.951  55  1.00000
 2246 2554.064  55  1.00000
 2247 2555.178  55  1.00000
 2248 2556.293  55  1.00000
 2249 2557.409  55  1.00000
 2250 2558.526  55  1.00000
 2251 2559.644  55  1.00000
 2252 2560.763  55  1.00000
 2253 2561.882  55  1.00000
 2254 2563.003  55  1.00000
 2255 2564.125  55  1.00000
 2256 2565.247  55  1.00000
 2257 2566.371  55  1.00000
 2258 2567.495  55  1.00000
 2259 2568.620  55  1.00000
 2260 2569.747  55  1.00000
 2261 2541.899  55  1.00000
 2262 2542.904  55  1.00000
 2263 2543.909  55  1.00000
 2264 2544.916  55  1.00000
 2265 2545.923  55  1.00000
 2266 2546.931  55  1.00000
 2267 2547.939  55  1.00000
 2268 2548.949  55  1.00000
 2269 2549.959  55  1.00000
 2270 2550.970  55  1.00000
 2271 2551.983  55  1.00000
 2272 2552.995  55  1.00000
 2273 2554.009  55  1.00000
 2274 2555.024  55  1.00000
 2275 2556.039  55  1.00000
 2276 2557.055  55  1.00000
 2277 2558.072  55  1.00000
 2278 2559.090  55  1.00000
 2279 2560.109  55  1.00000
 2280 2561.128  55  1.00000
 2281 2562.149  55  1.00000
 2282 2563.170  55  1.00000
 2283 2564.192  55  1.00000
 2284 2565.215  55  1.00000
 2285 2566.238  55  1.00000
 2286 2567.263  55  1.00000
 2287 2568.288  55  1.00000
 2288 2569.315  55  1.00000
 2289 2570.342  55  1.00000
 2290 2571.370  55  1.00000
 2291 2572.398  55  1.00000
 2292 2573.428  55  1.00000
 2293 2574.458  55  1.00000
 2294 2575.490  55  1.00000
 2295 2576.522  55  1.00000
 2296 2577.555  55  1.00000
 2297 2578.589  55  1.00000
 2298 2579.624  55  1.00000
 2299 2580.659  55  1.00000
 2300 2581.696  55  1.00000
 2301 2582.733  55  1.00000
 2302 2583.771  55  1.00000
 2303 2584.810  55  1.00000
 2304 2585.850  55  1.00000
 2305 2586.891  55  1.00000
 2306 2587.932  55  1.00000
 2307 2588.975  55  1.00000
 2308 2590.018  55  1.00000
 2309 2591.062  55  1.00000
 2310 2592.107  55  1.00000
 2311 2593.153  55  1.00000
 2312 2594.200  55  1.00000
 2313 2595.247  55  1.00000
 2314 2596.296  55  1.00000
 2315 2597.345  55  1.00000
 2316 2598.395  55  1.00000
 2317 2599.446  55  1.00000
 2318 2600.498  55  1.00000
 2319 2601.551  55  1.00000
 2320 2602.605  55  1.00000
 2321 2603.659  55  1.00000
 2322 2604.715  55  1.00000
 2323 2605.771  55  1.00000
 2324 2606.828  55  1.00000
 2325 2607.886  55  1.00000
 2326 2608.945  55  1.00000
 2327 2610.005  55  1.00000
 2328 2611.066  55  1.00000
 2329 2612.127  55  1.00000
 2330 2613.190  55  1.00000
 2331 2614.253  55  1.00000
 2332 2615.317  55  1.00000
 2333 2616.383  55  1.00000
 2334 2617.448  55  1.00000
 2335 2618.515  55  1.00000
 2336 2619.583  55  1.00000
 2337 2620.652  55  1.00000
 2338 2621.721  55  1.00000
 2339 2622.792  55  1.00000
 2340 2623.863  55  1.00000
 2341 2624.935  55  1.00000
 2342 2626.009  55  1.00000
 2343 2627.083  55  1.00000
 2344 2628.157  55  1.00000
 2345 2629.233  55  1.00000
 2346 2630.310  55  1.00000
 2347 2631.387  55  1.00000
 2348 2632.466  55  1.00000
 2349 2633.545  55  1.00000
 2350 2634.626  55  1.00000
 2351 2635.707  55  1.00000
 2352 2636.789  55  1.00000
 2353 2637.872  55  1.00000
 2354 2638.956  55  1.00000
 2355 2640.041  55  1.00000
 2356 2641.126  55  1.00000
 2357 2642.213  55  1.00000
 2358 2643.301  55  1.00000
 2359 2644.389  55  1.00000
 2360 2645.479  55  1.00000
 2361 2646.569  55  1.00000
 2362 2647.660  55  1.00000
 2363 2648.752  55  1.00000
 2364 2649.845  55  1.00000
 2365 2650.939  55  1.00000
 2366 2652.034  55  1.00000
 2367 2653.129  55  1.00000
 2368 2654.226  55  1.00000
 2369 2655.324  55  1.00000
 2370 2656.422  55  1.00000
 2371 2657.522  55  1.00000
 2372 2658.622  55  1.00000
 2373 2659.723  55  1.00000
 2374 2660.825  55  1.00000
 2375 2661.928  55  1.00000
 2376 2663.033  55  1.00000
 2377 2664.138  55  1.00000
 2378 2665.243  55  1.00000
